Committee,Type,Reporting Period,Report Type,Date Paid,Entity Name,First Name,Middle Initial,Last Name,Addr Line1,City,State,Zip,Zip4,Amount,Country,Occupation,Employer,Contribution Type,Amount Type,Purpose,Total To Date,Refund Transaction Type,Refund Original Transaction Date,Refund Original Transaction Total,Refund Original Transaction Descr,Previous Transaction (Y/N),Fundraiser Name,Fundraiser Location,Fundraiser Attendees,Fundraiser Tickets Sold,Election Type,Total Primary,Total General,type,Expenditure Type,Candidate Issue,Expenditure Platform,Expenditure Quantity,Expenditure Specific Services,Attachment,# of Donors - Individuals,Total $ - Individual,# of Donors - Committees,Total $ - Committee,Expenditure Paid Communications Platform,Expenditure Paid Communications Quantity,Expenditure Paid Communications Subject Matter,Matched Candidate,Matched District,Matched Party,Matched Race
AMERICANS FOR PROSPERITY - MONTANA,expenditure,04/26/2026 to 05/24/2026,C4,2026-04-26 00:00:00,CANVASS AMERICA,,,,"45 N HILL DR, STE 100",WARRENTON,VA,20186.0,,-1901.0,,,,,,Canvassing,,,,,,,,,,,PM,,,,3.0,TONY ROSALES (HD-20),DOORKNOCKING,4/26/26-5/24/26,CANVASSING,N,,,,,,,,TONY ROSALES,HOUSE DISTRICT 20,REP,STATE REPRESENTATIVE DISTRICT 20
AMERICANS FOR PROSPERITY - MONTANA,expenditure,04/26/2026 to 05/24/2026,C4,2026-04-26 00:00:00,CANVASS AMERICA,,,,"45 N HILL DR, STE 100",WARRENTON,VA,20186.0,,-2533.0,,,,,,Canvassing,,,,,,,,,,,PM,,,,3.0,JOHN SOUTH (HD-28),DOORKNOCKING,4/26/26-5/24/26,CANVASSING,N,,,,,,,,JOHN SOUTH,HOUSE DISTRICT 28,REP,STATE REPRESENTATIVE DISTRICT 28
AMERICANS FOR PROSPERITY - MONTANA,expenditure,04/26/2026 to 05/24/2026,C4,2026-04-26 00:00:00,CANVASS AMERICA,,,,"45 N HILL DR, STE 100",WARRENTON,VA,20186.0,,-950.0,,,,,,Canvassing,,,,,,,,,,,PM,,,,3.0,LINDA HARMON (HD-29),DOORKNOCKING,4/26/26-5/24/26,CANVASSING,N,,,,,,,,LINDA HARMON,HOUSE DISTRICT 29,REP,STATE REPRESENTATIVE DISTRICT 29
AMERICANS FOR PROSPERITY - MONTANA,expenditure,04/26/2026 to 05/24/2026,C4,2026-04-26 00:00:00,CANVASS AMERICA,,,,"45 N HILL DR, STE 100",WARRENTON,VA,20186.0,,-2756.0,,,,,,Canvassing,,,,,,,,,,,PM,,,,3.0,KIM DAILEY (HD-85),DOORKNOCKING,4/26/26-5/24/26,CANVASSING,N,,,,,,,,KIM DAILEY,HOUSE DISTRICT 85,REP,STATE REPRESENTATIVE DISTRICT 85
AMERICANS FOR PROSPERITY - MONTANA,expenditure,04/26/2026 to 05/24/2026,C4,2026-04-26 00:00:00,CANVASS AMERICA,,,,"45 N HILL DR, STE 100",WARRENTON,VA,20186.0,,-4752.0,,,,,,Canvassing,,,,,,,,,,,PM,,,,3.0,FINLEY WARDEN (HD-13),DOORKNOCKIGN,4/26/26-5/24/26,CANVASSING,N,,,,,,,,FINLEY WARDEN,HOUSE DISTRICT 13,REP,STATE REPRESENTATIVE DISTRICT 13
AMERICANS FOR PROSPERITY - MONTANA,expenditure,04/26/2026 to 05/24/2026,C4,2026-04-26 00:00:00,CANVASS AMERICA,,,,"45 N HILL DR, STE 100",WARRENTON,VA,20186.0,,-6068.0,,,,,,Canvassing,,,,,,,,,,,PM,,,,3.0,MARY HORMAN (HD-55),DOORKNOCKING,4/26/26-5/24/26,CANVASSING,N,,,,,,,,MARY HORMAN,HOUSE DISTRICT 55,REP,STATE REPRESENTATIVE DISTRICT 55
AMERICANS FOR PROSPERITY - MONTANA,expenditure,04/26/2026 to 05/24/2026,C4,2026-04-26 00:00:00,CANVASS AMERICA,,,,"45 N HILL DR, STE 100",WARRENTON,VA,20186.0,,-5750.0,,,,,,Canvassing,,,,,,,,,,,PM,,,,3.0,STEVE LAPRAIM (SD-42),DOORKNOCKING,4/26/26-5/24/26,CANVASSING,N,,,,,,,,STEPHEN LAPRAIM,SENATE DISTRICT 42,REP,STATE SENATOR DISTRICT 42
AMERICANS FOR PROSPERITY - MONTANA,expenditure,04/26/2026 to 05/24/2026,C4,2026-04-26 00:00:00,CANVASS AMERICA,,,,"45 N HILL DR, STE 100",WARRENTON,VA,20186.0,,-14968.0,,,,,,Canvassing,,,,,,,,,,,PM,,,,3.0,ZACK WIRTH (SD-9),DOORKNOCKING,4/26/26-5/24/26,CANVASSING,N,,,,,,,,ZACK WIRTH,SENATE DISTRICT 9,REP,STATE SENATOR DISTRICT 9
AMERICANS FOR PROSPERITY - MONTANA,expenditure,04/26/2026 to 05/24/2026,C4,2026-04-26 00:00:00,CANVASS AMERICA,,,,"45 N HILL DR, STE 100",WARRENTON,VA,20186.0,,-4115.0,,,,,,Canvassing ,,,,,,,,,,,PM,,,,3.0,TREVOR FUNSETH (HD-21),DOORKNOCKING,4/26/26-5/24/26,CANVASSING,N,,,,,,,,TREVOR P FUNSETH,HOUSE DISTRICT 21,REP,STATE REPRESENTATIVE DISTRICT 21
AMERICANS FOR PROSPERITY - MONTANA,expenditure,04/26/2026 to 05/24/2026,C4,2026-04-26 00:00:00,CANVASS AMERICA,,,,"45 N HILL DR, STE 100",WARRENTON,VA,20186.0,,-4115.0,,,,,,Canvassing,,,,,,,,,,,PM,,,,3.0,TREVOR WALTER (HD-69),DOORKNOCKING,4/26/26-5/24/26,CANVASSING,N,,,,,,,,TREVOR WALTER,HOUSE DISTRICT 69,REP,STATE REPRESENTATIVE DISTRICT 69
AMERICANS FOR PROSPERITY - MONTANA,expenditure,04/26/2026 to 05/24/2026,C4,2026-04-26 00:00:00,CANVASS AMERICA,,,,"45 N HILL DR, STE 100",WARRENTON,VA,20186.0,,-4115.0,,,,,,Canvassing,,,,,,,,,,,PM,,,,3.0,TRISH SCHREIBER (HD-76),DOORKNOCKING,4/26/26-5/24/26,CANVASSING,N,,,,,,,,TRISH SCHREIBER,HOUSE DISTRICT 76,REP,STATE REPRESENTATIVE DISTRICT 76
AMERICANS FOR PROSPERITY - MONTANA,expenditure,04/26/2026 to 05/24/2026,C4,2026-04-26 00:00:00,CANVASS AMERICA,,,,"45 N HILL DR, STE 100",WARRENTON,VA,20186.0,,-4657.0,,,,,,Canvassing,,,,,,,,,,,PM,,,,3.0,KATHY LOVE (SD-43),DOORKNOCKING,4/26/26-5/24/26,CANVASSING,N,,,,,,,,KATHY LOVE,SENATE DISTRICT 43,REP,STATE SENATOR DISTRICT 43
AMERICANS FOR PROSPERITY - MONTANA,expenditure,04/26/2026 to 05/24/2026,C4,2026-04-26 00:00:00,CANVASS AMERICA,,,,"45 N HILL DR, STE 100",WARRENTON,VA,20186.0,,-6291.0,,,,,,Canvassing,,,,,,,,,,,PM,,,,3.0,CALEB HINKLE (SD-34),DOORKNOCKING,4/26/26-5/24/26,CANVASSING,N,,,,,,,,CALEB HINKLE,SENATE DISTRICT 34,REP,STATE SENATOR DISTRICT 34
AMERICANS FOR PROSPERITY - MONTANA,expenditure,04/26/2026 to 05/24/2026,C4,2026-05-16 00:00:00,AMERICANS FOR PROSPERITY,,,,4201 WILSON BLVD,ARLINGTON,VA,22203.0,,-1196.06,,,,,,Canvassing,,,,,,,,,,,PM,,,,3.0,KIM DAILEY (HD-85),DOORKNOCKING,5/16/26-5/24/26,CANVASSING,N,,,,,,,,KIM DAILEY,HOUSE DISTRICT 85,REP,STATE REPRESENTATIVE DISTRICT 85
AMERICANS FOR PROSPERITY - MONTANA,expenditure,04/26/2026 to 05/24/2026,C4,2026-05-16 00:00:00,AMERICANS FOR PROSPERITY,,,,"4201 WILSON BLVD, STE 1000",ARLINGTON,VA,22203.0,,-897.05,,,,,,Canvassing,,,,,,,,,,,PM,,,,3.0,TONY ROSALES (HD-20),DOORKNOCKING,5/16/26-5/24/26,CANVASSING,N,,,,,,,,TONY ROSALES,HOUSE DISTRICT 20,REP,STATE REPRESENTATIVE DISTRICT 20
AMERICANS FOR PROSPERITY - MONTANA,expenditure,04/26/2026 to 05/24/2026,C4,2026-05-16 00:00:00,AMERICANS FOR PROSPERITY,,,,"4201 WILSON BLVD, STE 1000",ARLINGTON,VA,22203.0,,-598.03,,,,,,Canvassing,,,,,,,,,,,PM,,,,3.0,LINDA HARMON (HD-29),DOORKNOCKING,5/16/26-5/24/26,CANVASSING,N,,,,,,,,LINDA HARMON,HOUSE DISTRICT 29,REP,STATE REPRESENTATIVE DISTRICT 29
AMERICANS FOR PROSPERITY - MONTANA,expenditure,04/26/2026 to 05/24/2026,C4,2026-05-16 00:00:00,AMERICANS FOR PROSPERITY,,,,"4201 WILSON BLVD, STE 1000",ARLINGTON,VA,22203.0,,-897.05,,,,,,Canvassing,,,,,,,,,,,PM,,,,3.0,JOHN SOUTH (HD-28),DOORKNOCKING,5/16/26-5/24/26,CANVASSING,N,,,,,,,,JOHN SOUTH,HOUSE DISTRICT 28,REP,STATE REPRESENTATIVE DISTRICT 28
AMERICANS FOR PROSPERITY - MONTANA,expenditure,04/26/2026 to 05/24/2026,C4,2026-05-16 00:00:00,AMERICANS FOR PROSPERITY,,,,"4201 WILSON BLVD, STE 1000",ARLINGTON,VA,22203.0,,-1196.06,,,,,,Canvassing,,,,,,,,,,,PM,,,,3.0,MARY HORMAN (HD-55),DOORKNOCKING,5/16/26-5/24/26,CANVASSING,N,,,,,,,,MARY HORMAN,HOUSE DISTRICT 55,REP,STATE REPRESENTATIVE DISTRICT 55
AMERICANS FOR PROSPERITY - MONTANA,expenditure,04/26/2026 to 05/24/2026,C4,2026-05-16 00:00:00,AMERICANS FOR PROSPERITY,,,,"4201 WILSON BLVD, STE 1000",ARLINGTON,VA,22203.0,,-1196.06,,,,,,Canvassing,,,,,,,,,,,PM,,,,3.0,FINLEY WARDEN (HD-13),DOORKNOCKING,5/16/26-5/24/26,CANVASSING,N,,,,,,,,FINLEY WARDEN,HOUSE DISTRICT 13,REP,STATE REPRESENTATIVE DISTRICT 13
AMERICANS FOR PROSPERITY - MONTANA,expenditure,04/26/2026 to 05/24/2026,C4,2026-05-16 00:00:00,AMERICANS FOR PROSPERITY,,,,"4201 WILSON BLVD, STE 1000",ARLINGTON,VA,22203.0,,-1794.09,,,,,,Canvassing,,,,,,,,,,,PM,,,,3.0,STEVE LAPRAIM (SD-42),DOORKNOCKING,5/16/26-5/24/26,CANVASSING,N,,,,,,,,STEPHEN LAPRAIM,SENATE DISTRICT 42,REP,STATE SENATOR DISTRICT 42
AMERICANS FOR PROSPERITY - MONTANA,expenditure,04/26/2026 to 05/24/2026,C4,2026-05-16 00:00:00,AMERICANS FOR PROSPERITY,,,,"4201 WILSON BLVD, STE 1000",ARLINGTON,VA,22203.0,,-1196.06,,,,,,Canvassing,,,,,,,,,,,PM,,,,3.0,TREVOR FUNSETH (HD-21),DOORKNOCKING,5/16/26-5/24/26,CANVASSING,N,,,,,,,,TREVOR P FUNSETH,HOUSE DISTRICT 21,REP,STATE REPRESENTATIVE DISTRICT 21
AMERICANS FOR PROSPERITY - MONTANA,expenditure,04/26/2026 to 05/24/2026,C4,2026-05-16 00:00:00,AMERICANS FOR PROSPERITY,,,,"4201 WILSON BLVD, STE 1000",ARLINGTON,VA,22203.0,,-1794.09,,,,,,Canvassing,,,,,,,,,,,PM,,,,3.0,CALEB HINKLE (SD-34),DOORKNOCKING,5/16/26-5/24/26,,,,,,,,,,CALEB HINKLE,SENATE DISTRICT 34,REP,STATE SENATOR DISTRICT 34
AMERICANS FOR PROSPERITY - MONTANA,expenditure,04/26/2026 to 05/24/2026,C4,2026-05-16 00:00:00,AMERICANS FOR PROSPERITY,,,,"4201 WILSON BLVD, STE 1000",ARLINGTON,VA,22203.0,,-1196.06,,,,,,Canvassing ,,,,,,,,,,,PM,,,,3.0,TREVOR WALTER (HD-69),DOORKNOCKING,5/16/26-5/24/26,CANVASSING,N,,,,,,,,TREVOR WALTER,HOUSE DISTRICT 69,REP,STATE REPRESENTATIVE DISTRICT 69
AMERICANS FOR PROSPERITY - MONTANA,expenditure,04/26/2026 to 05/24/2026,C4,2026-05-16 00:00:00,AMERICANS FOR PROSPERITY ,,,,"4201 WILSON BLVD, STE 1000",ARLINGTON,VA,22203.0,,-1196.06,,,,,,Canvassing ,,,,,,,,,,,PM,,,,3.0,TRISH SCHREIBER (HD-76),DOORKNOCKING,5/16/26-5/24/26,CANVASSING,N,,,,,,,,TRISH SCHREIBER,HOUSE DISTRICT 76,REP,STATE REPRESENTATIVE DISTRICT 76
AMERICANS FOR PROSPERITY - MONTANA,expenditure,04/26/2026 to 05/24/2026,C4,2026-05-16 00:00:00,AMERICANS FOR PROSPERITY,,,,"4201 WILSON BLVD, STE 1000",ARLINGTON,VA,22203.0,,-1794.09,,,,,,Canvassing,,,,,,,,,,,PM,,,,3.0,KATHY LOVE (SD-43),DOORKNOCKING,5/16/26-5/24/26,CANVASSING,N,,,,,,,,KATHY LOVE,SENATE DISTRICT 43,REP,STATE SENATOR DISTRICT 43
AMERICANS FOR PROSPERITY - MONTANA,expenditure,04/26/2026 to 05/24/2026,C4,2026-05-16 00:00:00,AMERICANS FOR PROSPERITY,,,,"4201 WILSON BLVD, STE 1000",ARLINGTON,VA,22203.0,,-5980.31,,,,,,Canvassing,,,,,,,,,,,PM,,,,3.0,ZACK WIRTH (SD-9),DOORKNOCKING,5/16/26-5/24/26,CANVASSING,N,,,,,,,,ZACK WIRTH,SENATE DISTRICT 9,REP,STATE SENATOR DISTRICT 9
AMERICANS FOR PROSPERITY - MONTANA,expenditure,04/26/2026 to 05/24/2026,C4,2026-04-26 00:00:00,AMERICANS FOR PROSPERITY,,,,4201 WILSON BLVD,ARLINGTON,VA,22203.0,,-693.59,,,,,,Canvassing,,,,,,,,,,,PM,,,,3.0,KIM DAILEY (HD-85),DOORKNOCKING,4/26/26-4/30/26,CANVASSING,N,,,,,,,,KIM DAILEY,HOUSE DISTRICT 85,REP,STATE REPRESENTATIVE DISTRICT 85
AMERICANS FOR PROSPERITY - MONTANA,expenditure,04/26/2026 to 05/24/2026,C4,2026-04-26 00:00:00,AMERICANS FOR PROSPERITY,,,,"4201 WILSON BLVD, STE 1000",ARLINGTON,VA,22203.0,,-693.59,,,,,,Canvassing,,,,,,,,,,,PM,,,,3.0,TONY ROSALES (HD-20),DOORKNOCKING,4/26/26-4/30/26,CANVASSING,N,,,,,,,,TONY ROSALES,HOUSE DISTRICT 20,REP,STATE REPRESENTATIVE DISTRICT 20
AMERICANS FOR PROSPERITY - MONTANA,expenditure,04/26/2026 to 05/24/2026,C4,2026-04-26 00:00:00,AMERICANS FOR PROSPERITY,,,,4201 WILSON BLVD,ARLINGTON,VA,22203.0,,-173.39,,,,,,Canvassing,,,,,,,,,,,PM,,,,3.0,LINDA HARMON (HD-29),DOORKNOCKING,4/26/26-4/30/26,CANVASSING,N,,,,,,,,LINDA HARMON,HOUSE DISTRICT 29,REP,STATE REPRESENTATIVE DISTRICT 29
AMERICANS FOR PROSPERITY - MONTANA,expenditure,04/26/2026 to 05/24/2026,C4,2026-04-26 00:00:00,AMERICANS FOR PROSPERITY,,,,"4201 WILSON BLVD, STE 1000",ARLINGTON,VA,22203.0,,-520.19,,,,,,Canvassing,,,,,,,,,,,PM,,,,3.0,JOHN SOUTH (HD-28),DOORKNOCKING,4/26/26-4/30/26,CANVASSING,N,,,,,,,,JOHN SOUTH,HOUSE DISTRICT 28,REP,STATE REPRESENTATIVE DISTRICT 28
AMERICANS FOR PROSPERITY - MONTANA,expenditure,04/26/2026 to 05/24/2026,C4,2026-04-26 00:00:00,AMERICANS FOR PROSPERITY,,,,"4201 WILSON BLVD, STE 1000",ARLINGTON,VA,22203.0,,-1387.18,,,,,,Canvassing,,,,,,,,,,,PM,,,,3.0,MARY HORMAN (HD-55),DOORKNOCKING,4/26/26-4/30/26,CANVASSING,N,,,,,,,,MARY HORMAN,HOUSE DISTRICT 55,REP,STATE REPRESENTATIVE DISTRICT 55
AMERICANS FOR PROSPERITY - MONTANA,expenditure,04/26/2026 to 05/24/2026,C4,2026-04-26 00:00:00,AMERICANS FOR PROSPERITY,,,,"4201 WILSON BLVD, STE 1000",ARLINGTON,VA,22203.0,,-866.99,,,,,,Canvassing,,,,,,,,,,,PM,,,,3.0,FINLEY WARDEN (HD-13),DOORKNOCKING,4/26/26-4/30/26,CANVASSING,N,,,,,,,,FINLEY WARDEN,HOUSE DISTRICT 13,REP,STATE REPRESENTATIVE DISTRICT 13
AMERICANS FOR PROSPERITY - MONTANA,expenditure,04/26/2026 to 05/24/2026,C4,2026-04-26 00:00:00,AMERICANS FOR PROSPERITY,,,,"4201 WILSON BLVD, STE 1000",ARLINGTON,VA,22203.0,,-693.59,,,,,,Canvassing,,,,,,,,,,,PM,,,,3.0,STEVE LAPRAIM (SD-42),DOORKNOCKING,4/26/26-4/30/26,CANVASSING,N,,,,,,,,STEPHEN LAPRAIM,SENATE DISTRICT 42,REP,STATE SENATOR DISTRICT 42
AMERICANS FOR PROSPERITY - MONTANA,expenditure,04/26/2026 to 05/24/2026,C4,2026-04-26 00:00:00,AMERICANS FOR PROSPERITY,,,,"4201 WILSON BLVD, STE 1000",ARLINGTON,VA,22203.0,,-693.59,,,,,,Canvassing,,,,,,,,,,,PM,,,,3.0,TREVOR FUNSETH (HD-21),DOORKNOCKING,4/26/26-4/30/26,CANVASSING,N,,,,,,,,TREVOR P FUNSETH,HOUSE DISTRICT 21,REP,STATE REPRESENTATIVE DISTRICT 21
AMERICANS FOR PROSPERITY - MONTANA,expenditure,04/26/2026 to 05/24/2026,C4,2026-04-26 00:00:00,AMERICANS FOR PROSPERITY,,,,"4201 WILSON BLVD, STE 1000",ARLINGTON,VA,22203.0,,-1387.18,,,,,,Canvassing,,,,,,,,,,,PM,,,,3.0,CALEB HINKLE (SD-34),DOORKNOCKING,4/26/26-4/30/26,CANVASSING,N,,,,,,,,CALEB HINKLE,SENATE DISTRICT 34,REP,STATE SENATOR DISTRICT 34
AMERICANS FOR PROSPERITY - MONTANA,expenditure,04/26/2026 to 05/24/2026,C4,2026-04-26 00:00:00,AMERICANS FOR PROSPERITY,,,,"4201 WILSON BLVD, STE 1000",ARLINGTON,VA,22203.0,,-693.59,,,,,,Canvassing,,,,,,,,,,,PM,,,,3.0,TREVOR WALTER (HD-69),DOORKNOCKING,4/26/26-4/30/26,CANVASSING,N,,,,,,,,TREVOR WALTER,HOUSE DISTRICT 69,REP,STATE REPRESENTATIVE DISTRICT 69
AMERICANS FOR PROSPERITY - MONTANA,expenditure,04/26/2026 to 05/24/2026,C4,2026-04-26 00:00:00,AMERICANS FOR PROSPERITY ,,,,"4201 WILSON BLVD, STE 1000",ARLINGTON,VA,22203.0,,-693.59,,,,,,Canvassing,,,,,,,,,,,PM,,,,3.0,TRISH SCHREIBER (HD-76),DOORKNOCKING,4/26/26-4/30/26,CANVASSING,N,,,,,,,,TRISH SCHREIBER,HOUSE DISTRICT 76,REP,STATE REPRESENTATIVE DISTRICT 76
AMERICANS FOR PROSPERITY - MONTANA,expenditure,04/26/2026 to 05/24/2026,C4,2026-04-26 00:00:00,AMERICANS FOR PROSPERITY,,,,"4201 WILSON BLVD, STE 1000",ARLINGTON,VA,22203.0,,-1387.18,,,,,,Canvassing,,,,,,,,,,,PM,,,,3.0,KATHY LOVE (SD-43),DOORKNOCKING,4/26/26-4/30/26,CANVASSING,N,,,,,,,,KATHY LOVE,SENATE DISTRICT 43,REP,STATE SENATOR DISTRICT 43
AMERICANS FOR PROSPERITY - MONTANA,expenditure,04/26/2026 to 05/24/2026,C4,2026-04-26 00:00:00,AMERICANS FOR PROSPERITY,,,,"4201 WILSON BLVD, STE 1000",ARLINGTON,VA,22203.0,,-2427.56,,,,,,Canvassing,,,,,,,,,,,PM,,,,3.0,ZACK WIRTH (SD-9),DOORKNOCKING,4/26/26-4/30/26,CANVASSING,N,,,,,,,,ZACK WIRTH,SENATE DISTRICT 9,REP,STATE SENATOR DISTRICT 9
AMERICANS FOR PROSPERITY - MONTANA,expenditure,04/26/2026 to 05/24/2026,C4,2026-05-01 00:00:00,AMERICANS FOR PROSPERITY,,,,"4201 WILSON BLVD, STE 1000",ARLINGTON,VA,22203.0,,-1055.58,,,,,,Canvassing,,,,,,,,,,,PM,,,,3.0,KIM DAILEY (HD-85),DOORKNOCKING,5/1/26-5/15/26,CANVASSING,N,,,,,,,,KIM DAILEY,HOUSE DISTRICT 85,REP,STATE REPRESENTATIVE DISTRICT 85
AMERICANS FOR PROSPERITY - MONTANA,expenditure,04/26/2026 to 05/24/2026,C4,2026-05-01 00:00:00,AMERICANS FOR PROSPERITY,,,,"4201 WILSON BLVD, STE 1000",ARLINGTON,VA,22203.0,,-1055.58,,,,,,Canvassing,,,,,,,,,,,PM,,,,3.0,TONY ROSALES (HD-20),DOORKNOCKING,5/1/26-5/15/26,CANVASSING,N,,,,,,,,TONY ROSALES,HOUSE DISTRICT 20,REP,STATE REPRESENTATIVE DISTRICT 20
AMERICANS FOR PROSPERITY - MONTANA,expenditure,04/26/2026 to 05/24/2026,C4,2026-05-01 00:00:00,AMERICANS FOR PROSPERITY,,,,"4201 WILSON BLVD, STE 1000",ARLINGTON,VA,22203.0,,-1055.58,,,,,,Canvassing,,,,,,,,,,,PM,,,,3.0,LINDA HARMON (HD-29),DOORKNOCKING,5/1/26-5/15/26,CANVASSING,N,,,,,,,,LINDA HARMON,HOUSE DISTRICT 29,REP,STATE REPRESENTATIVE DISTRICT 29
AMERICANS FOR PROSPERITY - MONTANA,expenditure,04/26/2026 to 05/24/2026,C4,2026-05-01 00:00:00,AMERICANS FOR PROSPERITY,,,,"4201 WILSON BLVD, STE 1000",ARLINGTON,VA,22203.0,,-1055.58,,,,,,Canvassing,,,,,,,,,,,PM,,,,3.0,JOHN SOUTH (HD-28),DOORKNOCKING,5/1/26-5/15/26,CANVASSING,N,,,,,,,,JOHN SOUTH,HOUSE DISTRICT 28,REP,STATE REPRESENTATIVE DISTRICT 28
AMERICANS FOR PROSPERITY - MONTANA,expenditure,04/26/2026 to 05/24/2026,C4,2026-05-01 00:00:00,AMERICANS FOR PROSPERITY,,,,"4201 WILSON BLVD, STE 1000",ARLINGTON,VA,22203.0,,-4222.29,,,,,,Canvassing,,,,,,,,,,,PM,,,,3.0,MARY HORMAN (HD-55),DOORKNOCKING,5/1/26-5/15/26,CANVASSING,N,,,,,,,,MARY HORMAN,HOUSE DISTRICT 55,REP,STATE REPRESENTATIVE DISTRICT 55
AMERICANS FOR PROSPERITY - MONTANA,expenditure,04/26/2026 to 05/24/2026,C4,2026-05-01 00:00:00,AMERICANS FOR PROSPERITY,,,,"4201 WILSON BLVD, STE 1000",ARLINGTON,VA,22203.0,,-2111.14,,,,,,Canvassing,,,,,,,,,,,PM,,,,3.0,FINLEY WARDEN (HD-13),DOORKNOCKING,5/1/26-5/15/26,CANVASSING,N,,,,,,,,FINLEY WARDEN,HOUSE DISTRICT 13,REP,STATE REPRESENTATIVE DISTRICT 13
AMERICANS FOR PROSPERITY - MONTANA,expenditure,04/26/2026 to 05/24/2026,C4,2026-05-01 00:00:00,AMERICANS FOR PROSPERITY,,,,"4201 WILSON BLVD, STE 1000",ARLINGTON,VA,22203.0,,-4222.29,,,,,,Canvassing,,,,,,,,,,,PM,,,,3.0,STEVE LAPRAIM (SD-42),DOORKNOCKING,5/1/26-5/15/26,CANVASSING,N,,,,,,,,STEPHEN LAPRAIM,SENATE DISTRICT 42,REP,STATE SENATOR DISTRICT 42
AMERICANS FOR PROSPERITY - MONTANA,expenditure,04/26/2026 to 05/24/2026,C4,2026-05-01 00:00:00,AMERICANS FOR PROSPERITY,,,,"4201 WILSON BLVD, STE 1000",ARLINGTON,VA,22203.0,,-2111.14,,,,,,Canvassing,,,,,,,,,,,PM,,,,3.0,TREVOR FUNSETH (HD-21),DOORKNOCKING,5/1/26-5/15/26,CANVASSING,N,,,,,,,,TREVOR P FUNSETH,HOUSE DISTRICT 21,REP,STATE REPRESENTATIVE DISTRICT 21
AMERICANS FOR PROSPERITY - MONTANA,expenditure,04/26/2026 to 05/24/2026,C4,2026-05-01 00:00:00,AMERICANS FOR PROSPERITY,,,,"4201 WILSON BLVD, STE 1000",ARLINGTON,VA,22203.0,,-4222.29,,,,,,Canvassing,,,,,,,,,,,PM,,,,3.0,CALEB HINKLE (SD-34),DOORKNOCKING,5/1/26-5/15/26,CANVASSING,N,,,,,,,,CALEB HINKLE,SENATE DISTRICT 34,REP,STATE SENATOR DISTRICT 34
AMERICANS FOR PROSPERITY - MONTANA,expenditure,04/26/2026 to 05/24/2026,C4,2026-05-01 00:00:00,AMERICANS FOR PROSPERITY,,,,"4201 WILSON BLVD, STE 1000",ARLINGTON,VA,22203.0,,-2111.14,,,,,,Canvassing,,,,,,,,,,,PM,,,,3.0,TREVOR WALTER (HD-69),DOORKNOCKING,5/1/26-5/15/26,CANVASSING,N,,,,,,,,TREVOR WALTER,HOUSE DISTRICT 69,REP,STATE REPRESENTATIVE DISTRICT 69
AMERICANS FOR PROSPERITY - MONTANA,expenditure,04/26/2026 to 05/24/2026,C4,2026-05-01 00:00:00,AMERICANS FOR PROSPERITY,,,,"4201 WILSON BLVD, STE 1000",ARLINGTON,VA,22203.0,,-2375.04,,,,,,Canvassing,,,,,,,,,,,PM,,,,3.0,TRISH SCHREIBER (HD-76),DOORKNOCKING,5/1/26-5/15/26,CANVASSING,N,,,,,,,,TRISH SCHREIBER,HOUSE DISTRICT 76,REP,STATE REPRESENTATIVE DISTRICT 76
AMERICANS FOR PROSPERITY - MONTANA,expenditure,04/26/2026 to 05/24/2026,C4,2026-05-01 00:00:00,AMERICANS FOR PROSPERITY,,,,"4201 WILSON BLVD, STE 1000",ARLINGTON,VA,22203.0,,-2375.04,,,,,,Canvassing,,,,,,,,,,,PM,,,,3.0,KATHY LOVE (SD-43),DOORKNOCKING,5/1/26-5/15/26,CANVASSING,N,,,,,,,,KATHY LOVE,SENATE DISTRICT 43,REP,STATE SENATOR DISTRICT 43
AMERICANS FOR PROSPERITY - MONTANA,expenditure,04/26/2026 to 05/24/2026,C4,2026-05-01 00:00:00,AMERICANS FOR PROSPERITY,,,,"4201 WILSON BLVD, STE 1000",ARLINGTON,VA,22203.0,,-8972.36,,,,,,Canvassing,,,,,,,,,,,PM,,,,3.0,ZACK WIRTH (SD-9),DOORKNOCKING,5/1/26-5/15/26,CANVASSING,N,,,,,,,,ZACK WIRTH,SENATE DISTRICT 9,REP,STATE SENATOR DISTRICT 9
AMERICANS FOR PROSPERITY - MONTANA,expenditure,04/26/2026 to 05/24/2026,C4,2026-05-20 00:00:00,UNITED STATES POSTAL SERVICE,,,,470 L'ENFANT PLAZA SW STE 604,WASHINGTON,DC,20024.0,,-882.14,,,,,,Mailer,,,,,,,,,,,PM,,,,3.0,ZACK WIRTH (SD-9),,"5,513",MAILER POSTAGE,N,,,,,,,,ZACK WIRTH,SENATE DISTRICT 9,REP,STATE SENATOR DISTRICT 9
AMERICANS FOR PROSPERITY - MONTANA,expenditure,04/26/2026 to 05/24/2026,C4,2026-05-07 00:00:00,UNITED STATES POSTAL SERVICE,,,,470 L'ENFANT PLAZA SW STE 604,WASHINGTON,DC,20024.0,,-882.14,,,,,,Mailer,,,,,,,,,,,PM,,,,3.0,ZACK WIRTH (SD-9),,"5,513",MAILER POSTAGE,N,,,,,,,,ZACK WIRTH,SENATE DISTRICT 9,REP,STATE SENATOR DISTRICT 9
AMERICANS FOR PROSPERITY - MONTANA,expenditure,04/26/2026 to 05/24/2026,C4,2026-05-07 00:00:00,UNITED STATES POSTAL SERVICE,,,,470 L'ENFANT PLAZA SW STE 604,WASHINGTON,DC,20024.0,,-486.45,,,,,,Mailer,,,,,,,,,,,PM,,,,3.0,KIM DAILEY (HD-85),,"3,083",MAILER POSTAGE,N,,,,,,,,KIM DAILEY,HOUSE DISTRICT 85,REP,STATE REPRESENTATIVE DISTRICT 85
AMERICANS FOR PROSPERITY - MONTANA,expenditure,04/26/2026 to 05/24/2026,C4,2026-05-07 00:00:00,UNITED STATES POSTAL SERVICE,,,,470 L'ENFANT PLAZA SW STE 604,WASHINGTON,DC,20024.0,,-214.36,,,,,,Mailer,,,,,,,,,,,PM,,,,3.0,TONY ROSALES (HD-20),,"1,355",MAILER POSTAGE,N,,,,,,,,TONY ROSALES,HOUSE DISTRICT 20,REP,STATE REPRESENTATIVE DISTRICT 20
AMERICANS FOR PROSPERITY - MONTANA,expenditure,04/26/2026 to 05/24/2026,C4,2026-05-07 00:00:00,UNITED STATES POSTAL SERVICE,,,,470 L'ENFANT PLAZA SW STE 604,WASHINGTON,DC,20024.0,,-443.79,,,,,,Mailer,,,,,,,,,,,PM,,,,3.0,JOHN SOUTH (HD-28),,"2,683",MAILER POSTAGE,N,,,,,,,,JOHN SOUTH,HOUSE DISTRICT 28,REP,STATE REPRESENTATIVE DISTRICT 28
AMERICANS FOR PROSPERITY - MONTANA,expenditure,04/26/2026 to 05/24/2026,C4,2026-05-07 00:00:00,UNITED STATES POSTAL SERVICE,,,,470 L'ENFANT PLAZA SW STE 604,WASHINGTON,DC,20024.0,,-413.79,,,,,,Mailer,,,,,,,,,,,PM,,,,3.0,LINDA HARMON (HD-29),,"2,515",MAILER POSTAGE,N,,,,,,,,LINDA HARMON,HOUSE DISTRICT 29,REP,STATE REPRESENTATIVE DISTRICT 29
AMERICANS FOR PROSPERITY - MONTANA,expenditure,04/26/2026 to 05/24/2026,C4,2026-05-07 00:00:00,UNITED STATES POSTAL SERVICE,,,,470 L'ENFANT PLAZA SW STE 604,WASHINGTON,DC,20024.0,,-317.45,,,,,,Mailer,,,,,,,,,,,PM,,,,3.0,MARY HORMAN (HD-55),,"1,973",MAILER POSTAGE,N,,,,,,,,MARY HORMAN,HOUSE DISTRICT 55,REP,STATE REPRESENTATIVE DISTRICT 55
AMERICANS FOR PROSPERITY - MONTANA,expenditure,04/26/2026 to 05/24/2026,C4,2026-05-07 00:00:00,UNITED STATES POSTAL SERVICE,,,,470 L'ENFANT PLAZA SW STE 604,WASHINGTON,DC,20024.0,,-315.74,,,,,,Mailer,,,,,,,,,,,PM,,,,3.0,FINLEY WARDEN (HD-13),,"2,002",MAILER POSTAGE,N,,,,,,,,FINLEY WARDEN,HOUSE DISTRICT 13,REP,STATE REPRESENTATIVE DISTRICT 13
AMERICANS FOR PROSPERITY - MONTANA,expenditure,04/26/2026 to 05/24/2026,C4,2026-05-07 00:00:00,UNITED STATES POSTAL SERVICE,,,,470 L'ENFANT PLAZA SW STE 604,WASHINGTON,DC,20024.0,,-628.64,,,,,,Mailer,,,,,,,,,,,PM,,,,3.0,STEVE LAPRAIM (SD-42),,"4,031",MAILER POSTAGE,N,,,,,,,,STEPHEN LAPRAIM,SENATE DISTRICT 42,REP,STATE SENATOR DISTRICT 42
AMERICANS FOR PROSPERITY - MONTANA,expenditure,04/26/2026 to 05/24/2026,C4,2026-05-07 00:00:00,UNITED STATES POSTAL SERVICE,,,,470 L'ENFANT PLAZA SW STE 604,WASHINGTON,DC,20024.0,,-262.17,,,,,,Mailer,,,,,,,,,,,PM,,,,3.0,TREVOR FUNSETH (HD-21),,"1,672",MAILER POSTAGE,N,,,,,,,,TREVOR P FUNSETH,HOUSE DISTRICT 21,REP,STATE REPRESENTATIVE DISTRICT 21
AMERICANS FOR PROSPERITY - MONTANA,expenditure,04/26/2026 to 05/24/2026,C4,2026-05-07 00:00:00,UNITED STATES POSTAL SERVICE,,,,470 L'ENFANT PLAZA SW STE 604,WASHINGTON,DC,20024.0,,-489.6,,,,,,Mailer,,,,,,,,,,,PM,,,,3.0,TREVOR WALTER (HD-69),,"3,035",MAILER POSTAGE,N,,,,,,,,TREVOR WALTER,HOUSE DISTRICT 69,REP,STATE REPRESENTATIVE DISTRICT 69
AMERICANS FOR PROSPERITY - MONTANA,expenditure,04/26/2026 to 05/24/2026,C4,2026-05-07 00:00:00,UNITED STATES POSTAL SERVICE,,,,470 L'ENFANT PLAZA SW STE 604,WASHINGTON,DC,20024.0,,-412.36,,,,,,Mailer,,,,,,,,,,,PM,,,,3.0,TRISH SCHREIBER (HD-76),,"2,518",MAILER POSTAGE,N,,,,,,,,TRISH SCHREIBER,HOUSE DISTRICT 76,REP,STATE REPRESENTATIVE DISTRICT 76
AMERICANS FOR PROSPERITY - MONTANA,expenditure,04/26/2026 to 05/24/2026,C4,2026-05-13 00:00:00,UNITED STATES POSTAL SERVICE,,,,470 L'ENFANT PLAZA SW STE 604,WASHINGTON,DC,20024.0,,-882.14,,,,,,Mailer,,,,,,,,,,,PM,,,,3.0,ZACK WIRTH (SD-9),,"5,513",MAILER POSTAGE,N,,,,,,,,ZACK WIRTH,SENATE DISTRICT 9,REP,STATE SENATOR DISTRICT 9
AMERICANS FOR PROSPERITY - MONTANA,expenditure,04/26/2026 to 05/24/2026,C4,2026-05-07 00:00:00,UNITED STATES POSTAL SERVICE,,,,470 L'ENFANT PLAZA SW STE 604,WASHINGTON,DC,20024.0,,-841.09,,,,,,Mailer,,,,,,,,,,,PM,,,,3.0,KATHY LOVE (SD-43),,"5,369",MAILER POSTAGE,N,,,,,,,,KATHY LOVE,SENATE DISTRICT 43,REP,STATE SENATOR DISTRICT 43
AMERICANS FOR PROSPERITY - MONTANA,expenditure,04/26/2026 to 05/24/2026,C4,2026-05-07 00:00:00,UNITED STATES POSTAL SERVICE,,,,470 L'ENFANT PLAZA SW STE 604,WASHINGTON,DC,20024.0,,-569.19,,,,,,Mailer ,,,,,,,,,,,PM,,,,3.0,CALEB HINKLE (SD-34),,"3,635",MAILER POSTAGE,N,,,,,,,,CALEB HINKLE,SENATE DISTRICT 34,REP,STATE SENATOR DISTRICT 34
AMERICANS FOR PROSPERITY - MONTANA,expenditure,04/26/2026 to 05/24/2026,C4,2026-05-04 00:00:00,UNITED STATES POSTAL SERVICE,,,,470 L'ENFANT PLAZA SW STE 604,WASHINGTON,DC,20024.0,,-628.64,,,,,,Mailer,,,,,,,,,,,PM,,,,3.0,STEVE LAPRAIM (SD-42),,"4,031",MAILER POSTAGE,N,,,,,,,,STEPHEN LAPRAIM,SENATE DISTRICT 42,REP,STATE SENATOR DISTRICT 42
AMERICANS FOR PROSPERITY - MONTANA,expenditure,04/26/2026 to 05/24/2026,C4,2026-05-04 00:00:00,UNITED STATES POSTAL SERVICE,,,,470 L'ENFANT PLAZA SW STE 604,WASHINGTON,DC,20024.0,,-882.14,,,,,,Mailer,,,,,,,,,,,PM,,,,3.0,ZACK WIRTH (SD-9),,"5,513",MAILER POSTAGE,N,,,,,,,,ZACK WIRTH,SENATE DISTRICT 9,REP,STATE SENATOR DISTRICT 9
AMERICANS FOR PROSPERITY - MONTANA,expenditure,04/26/2026 to 05/24/2026,C4,2026-05-04 00:00:00,UNITED STATES POSTAL SERVICE,,,,470 L'ENFANT PLAZA SW STE 604,WASHINGTON,DC,20024.0,,-841.09,,,,,,Mailer,,,,,,,,,,,PM,,,,3.0,KATHY LOVE (SD-43),,"5,369",MAILER POSTAGE,N,,,,,,,,KATHY LOVE,SENATE DISTRICT 43,REP,STATE SENATOR DISTRICT 43
AMERICANS FOR PROSPERITY - MONTANA,expenditure,04/26/2026 to 05/24/2026,C4,2026-05-04 00:00:00,UNITED STATES POSTAL SERVICE,,,,470 L'ENFANT PLAZA SW STE 604,WASHINGTON,DC,20024.0,,-569.19,,,,,,Mailer,,,,,,,,,,,PM,,,,3.0,CALEB HINKLE (SD-34),,"3,635",MAILER POSTAGE,N,,,,,,,,CALEB HINKLE,SENATE DISTRICT 34,REP,STATE SENATOR DISTRICT 34
AMERICANS FOR PROSPERITY - MONTANA,expenditure,04/26/2026 to 05/24/2026,C4,2026-05-20 00:00:00,FCG MAIL LLC,,,,558 E CASTLE PINES PKWY STE B-4 BOX 333,CASTLE PINES,CO,80108.0,,-2815.61,,,,,,Mailer,,,,,,,,,,,PM,,,,3.0,ZACK WIRTH (SD-9),,"5,513","MAILER DESIGN, PRINTING & PRODUCTION",N,,,,,,,,ZACK WIRTH,SENATE DISTRICT 9,REP,STATE SENATOR DISTRICT 9
AMERICANS FOR PROSPERITY - MONTANA,expenditure,04/26/2026 to 05/24/2026,C4,2026-05-07 00:00:00,FCG MAIL LLC,,,,558 E CASTLE PINES PKWY STE B-4 BOX 333,CASTLE PINES,CO,80108.0,,-2575.95,,,,,,Mailer,,,,,,,,,,,PM,,,,3.0,ZACK WIRTH (SD-9),,"5,513","MAILER DESIGN, PRINTING & PRODUCTION",N,,,,,,,,ZACK WIRTH,SENATE DISTRICT 9,REP,STATE SENATOR DISTRICT 9
AMERICANS FOR PROSPERITY - MONTANA,expenditure,04/26/2026 to 05/24/2026,C4,2026-05-07 00:00:00,FCG MAIL LLC,,,,558 E CASTLE PINES PKWY STE B-4 BOX 333,CASTLE PINES,CO,80108.0,,-1885.98,,,,,,Mailer,,,,,,,,,,,PM,,,,3.0,KIM DAILEY (HD-85),,"3,083","MAILER DESIGN, PRINTING & PRODUCTION",N,,,,,,,,KIM DAILEY,HOUSE DISTRICT 85,REP,STATE REPRESENTATIVE DISTRICT 85
AMERICANS FOR PROSPERITY - MONTANA,expenditure,04/26/2026 to 05/24/2026,C4,2026-05-07 00:00:00,FCG MAIL LLC,,,,558 E CASTLE PINES PKWY STE B-4 BOX 333,CASTLE PINES,CO,80108.0,,-1352.5,,,,,,Mailer,,,,,,,,,,,PM,,,,3.0,TONY ROSALES (HD-20),,"1,355","MAILER DESIGN, PRINTING & PRODUCTION",N,,,,,,,,TONY ROSALES,HOUSE DISTRICT 20,REP,STATE REPRESENTATIVE DISTRICT 20
AMERICANS FOR PROSPERITY - MONTANA,expenditure,04/26/2026 to 05/24/2026,C4,2026-05-07 00:00:00,FCG MAIL LLC,,,,558 E CASTLE PINES PKWY STE B-4 BOX 333,CASTLE PINES,CO,80108.0,,-1807.3,,,,,,Mailer,,,,,,,,,,,PM,,,,3.0,JOHN SOUTH (HD-28),,"2,683","MAILER DESIGN, PRINTING & PRODUCTION",N,,,,,,,,JOHN SOUTH,HOUSE DISTRICT 28,REP,STATE REPRESENTATIVE DISTRICT 28
AMERICANS FOR PROSPERITY - MONTANA,expenditure,04/26/2026 to 05/24/2026,C4,2026-05-07 00:00:00,FCG MAIL LLC,,,,558 E CASTLE PINES PKWY STE B-4 BOX 333,CASTLE PINES,CO,80108.0,,-1768.45,,,,,,Mailer,,,,,,,,,,,PM,,,,3.0,LINDA HARMON (HD-29),,"2,515","MAILER DESIGN, PRINTING & PRODUCTION",N,,,,,,,,LINDA HARMON,HOUSE DISTRICT 29,REP,STATE REPRESENTATIVE DISTRICT 29
AMERICANS FOR PROSPERITY - MONTANA,expenditure,04/26/2026 to 05/24/2026,C4,2026-05-07 00:00:00,FCG MAIL LLC,,,,558 E CASTLE PINES PKWY STE B-4 BOX 333,CASTLE PINES,CO,80108.0,,-1653.72,,,,,,Mailer,,,,,,,,,,,PM,,,,3.0,MARY HORMAN (HD-55),,"1,973","MAILER DESIGN, PRINTING & PRODUCTION",N,,,,,,,,MARY HORMAN,HOUSE DISTRICT 55,REP,STATE REPRESENTATIVE DISTRICT 55
AMERICANS FOR PROSPERITY - MONTANA,expenditure,04/26/2026 to 05/24/2026,C4,2026-05-07 00:00:00,FCG MAIL LLC,,,,558 E CASTLE PINES PKWY STE B-4 BOX 333,CASTLE PINES,CO,80108.0,,-1666.27,,,,,,Mailer,,,,,,,,,,,PM,,,,3.0,FINLEY WARDEN (HD-13),,"2,002","MAILER DESIGN, PRINTING & PRODUCTION",N,,,,,,,,FINLEY WARDEN,HOUSE DISTRICT 13,REP,STATE REPRESENTATIVE DISTRICT 13
AMERICANS FOR PROSPERITY - MONTANA,expenditure,04/26/2026 to 05/24/2026,C4,2026-05-07 00:00:00,FCG MAIL LLC,,,,558 E CASTLE PINES PKWY STE B-4 BOX 333,CASTLE PINES,CO,80108.0,,-2209.77,,,,,,Mailer,,,,,,,,,,,PM,,,,3.0,STEVE LAPRAIM (SD-42),,"4,031","MAILER DESIGN, PRINTING & PRODUCTION",N,,,,,,,,STEPHEN LAPRAIM,SENATE DISTRICT 42,REP,STATE SENATOR DISTRICT 42
AMERICANS FOR PROSPERITY - MONTANA,expenditure,04/26/2026 to 05/24/2026,C4,2026-05-07 00:00:00,FCG MAIL LLC,,,,558 E CASTLE PINES PKWY STE B-4 BOX 333,CASTLE PINES,CO,80108.0,,-1513.83,,,,,,Mailer,,,,,,,,,,,PM,,,,3.0,TREVOR FUNSETH (HD-21),,"1,672","MAILER DESIGN, PRINTING & PRODUCTION",N,,,,,,,,TREVOR P FUNSETH,HOUSE DISTRICT 21,REP,STATE REPRESENTATIVE DISTRICT 21
AMERICANS FOR PROSPERITY - MONTANA,expenditure,04/26/2026 to 05/24/2026,C4,2026-05-07 00:00:00,FCG MAIL LLC,,,,558 E CASTLE PINES PKWY STE B-4 BOX 333,CASTLE PINES,CO,80108.0,,-1873.81,,,,,,Mailer,,,,,,,,,,,PM,,,,3.0,TREVOR WALTER (HD-69),,"3,035","MAILER DESIGN, PRINTING & PRODUCTION",N,,,,,,,,TREVOR WALTER,HOUSE DISTRICT 69,REP,STATE REPRESENTATIVE DISTRICT 69
AMERICANS FOR PROSPERITY - MONTANA,expenditure,04/26/2026 to 05/24/2026,C4,2026-05-07 00:00:00,FCG MAIL LLC,,,,558 E CASTLE PINES PKWY STE B-4 BOX 333,CASTLE PINES,CO,80108.0,,-1769.21,,,,,,Mailer,,,,,,,,,,,PM,,,,3.0,TRISH SCHREIBER (HD-76),,"2,518","MAILER DESIGN, PRINTING & PRODUCTION",N,,,,,,,,TRISH SCHREIBER,HOUSE DISTRICT 76,REP,STATE REPRESENTATIVE DISTRICT 76
AMERICANS FOR PROSPERITY - MONTANA,expenditure,04/26/2026 to 05/24/2026,C4,2026-05-13 00:00:00,FCG MAIL LLC,,,,558 E CASTLE PINES PKWY STE B-4 BOX 333,CASTLE PINES,CO,80108.0,,-2815.61,,,,,,Mailer,,,,,,,,,,,PM,,,,3.0,ZACK WIRTH (SD-9),,"5,513","MAILER DESIGN, PRINTING & PRODUCTION",N,,,,,,,,ZACK WIRTH,SENATE DISTRICT 9,REP,STATE SENATOR DISTRICT 9
AMERICANS FOR PROSPERITY - MONTANA,expenditure,04/26/2026 to 05/24/2026,C4,2026-05-07 00:00:00,FCG MAIL LLC,,,,558 E CASTLE PINES PKWY STE B-4 BOX 333,CASTLE PINES,CO,80108.0,,-2531.92,,,,,,Mailer,,,,,,,,,,,PM,,,,3.0,KATHY LOVE (SD-43),,"5,369","MAILER DESIGN, PRINTING & PRODUCTION",N,,,,,,,,KATHY LOVE,SENATE DISTRICT 43,REP,STATE SENATOR DISTRICT 43
AMERICANS FOR PROSPERITY - MONTANA,expenditure,04/26/2026 to 05/24/2026,C4,2026-05-07 00:00:00,FCG MAIL LLC,,,,558 E CASTLE PINES PKWY STE B-4 BOX 333,CASTLE PINES,CO,80108.0,,-2039.26,,,,,,Mailer,,,,,,,,,,,PM,,,,3.0,CALEB HINKLE (SD-34),,"3,635","MAILER DESIGN, PRINTING & PRODUCTION",N,,,,,,,,CALEB HINKLE,SENATE DISTRICT 34,REP,STATE SENATOR DISTRICT 34
AMERICANS FOR PROSPERITY - MONTANA,expenditure,04/26/2026 to 05/24/2026,C4,2026-05-04 00:00:00,FCG MAIL LLC,,,,558 E CASTLE PINES PKWY STE B-4 BOX 333,CASTLE PINES,CO,80108.0,,-2346.69,,,,,,Mailer,,,,,,,,,,,PM,,,,3.0,STEVE LAPRAIM (SD-42),,"4,031","MAILER DESIGN, PRINTING & PRODUCTION",N,,,,,,,,STEPHEN LAPRAIM,SENATE DISTRICT 42,REP,STATE SENATOR DISTRICT 42
AMERICANS FOR PROSPERITY - MONTANA,expenditure,04/26/2026 to 05/24/2026,C4,2026-05-04 00:00:00,FCG MAIL LLC,,,,558 E CASTLE PINES PKWY STE B-4 BOX 333,CASTLE PINES,CO,80108.0,,-2763.2,,,,,,Mailer,,,,,,,,,,,PM,,,,3.0,ZACK WIRTH (SD-9),,"5,513","MAILER DESIGN, PRINTING & PRODUCTION",N,,,,,,,,ZACK WIRTH,SENATE DISTRICT 9,REP,STATE SENATOR DISTRICT 9
AMERICANS FOR PROSPERITY - MONTANA,expenditure,04/26/2026 to 05/24/2026,C4,2026-05-04 00:00:00,FCG MAIL LLC,,,,558 E CASTLE PINES PKWY STE B-4 BOX 333,CASTLE PINES,CO,80108.0,,-2714.29,,,,,,Mailer,,,,,,,,,,,PM,,,,3.0,KATHY LOVE (SD-43),,"5,369","MAILER DESIGN, PRINTING & PRODUCTION",N,,,,,,,,KATHY LOVE,SENATE DISTRICT 43,REP,STATE SENATOR DISTRICT 43
AMERICANS FOR PROSPERITY - MONTANA,expenditure,04/26/2026 to 05/24/2026,C4,2026-05-04 00:00:00,FCG MAIL LLC,,,,558 E CASTLE PINES PKWY STE B-4 BOX 333,CASTLE PINES,CO,80108.0,,-2162.72,,,,,,Mailer,,,,,,,,,,,PM,,,,3.0,CALEB HINKLE (SD-34),,"3,635","MAILER DESIGN, PRINTING & PRODUCTION",N,,,,,,,,CALEB HINKLE,SENATE DISTRICT 34,REP,STATE SENATOR DISTRICT 34
AMERICANS FOR PROSPERITY - MONTANA,expenditure,04/26/2026 to 05/24/2026,C4,2026-05-04 00:00:00,FCG MAIL LLC,,,,558 E CASTLE PINES PKWY STE B-4 BOX 333,CASTLE PINES,CO,80108.0,,-1488.8,,,,,,DOORHANGER,,,,,,,,,,,PM,,,,3.0,FINLEY WARDEN (HD-13),,"2,000","DOORHANGER DESIGN, PRINTING & PRODUCTION",N,,,,,,,,FINLEY WARDEN,HOUSE DISTRICT 13,REP,STATE REPRESENTATIVE DISTRICT 13
AMERICANS FOR PROSPERITY - MONTANA,expenditure,04/26/2026 to 05/24/2026,C4,2026-05-04 00:00:00,FCG MAIL LLC,,,,558 E CASTLE PINES PKWY STE B-4 BOX 333,CASTLE PINES,CO,80108.0,,-1488.8,,,,,,DOORHANGER,,,,,,,,,,,PM,,,,3.0,KIM DAILEY (HD-85),,"2,000","DOORHANGER DESIGN, PRINTING & PRODUCTION",N,,,,,,,,KIM DAILEY,HOUSE DISTRICT 85,REP,STATE REPRESENTATIVE DISTRICT 85
AMERICANS FOR PROSPERITY - MONTANA,expenditure,04/26/2026 to 05/24/2026,C4,2026-05-04 00:00:00,FCG MAIL LLC,,,,558 E CASTLE PINES PKWY STE B-4 BOX 333,CASTLE PINES,CO,80108.0,,-1488.8,,,,,,DOORHANGER,,,,,,,,,,,PM,,,,3.0,ZACK WIRTH (SD-9),,"2,000","DOORHANGER DESIGN, PRINTING & PRODUCTION",N,,,,,,,,ZACK WIRTH,SENATE DISTRICT 9,REP,STATE SENATOR DISTRICT 9
AMERICANS FOR PROSPERITY - MONTANA,expenditure,04/26/2026 to 05/24/2026,C4,2026-04-27 00:00:00,FCG MAIL LLC,,,,558 E CASTLE PINES PKWY STE B-4 BOX 333,CASTLE PINES,CO,80108.0,,-2164.5,,,,,,DOORHANGER,,,,,,,,,,,PM,,,,3.0,TREVOR FUNSETH (HD-21),,"5,000","DOORHANGER DESIGN, PRINTING & PRODUCTION",N,,,,,,,,TREVOR P FUNSETH,HOUSE DISTRICT 21,REP,STATE REPRESENTATIVE DISTRICT 21
AMERICANS FOR PROSPERITY - MONTANA,expenditure,04/26/2026 to 05/24/2026,C4,2026-04-27 00:00:00,FCG MAIL LLC,,,,558 E CASTLE PINES PKWY STE B-4 BOX 333,CASTLE PINES,CO,80108.0,,-2164.5,,,,,,DOORHANGER,,,,,,,,,,,PM,,,,3.0,TONY ROSALES (HD-20),,"5,000","DOORHANGER DESIGN, PRINTING & PRODUCTION",N,,,,,,,,TONY ROSALES,HOUSE DISTRICT 20,REP,STATE REPRESENTATIVE DISTRICT 20
AMERICANS FOR PROSPERITY - MONTANA,expenditure,04/26/2026 to 05/24/2026,C4,2026-04-27 00:00:00,FCG MAIL LLC,,,,558 E CASTLE PINES PKWY STE B-4 BOX 333,CASTLE PINES,CO,80108.0,,-2449.0,,,,,,DOORHANGER,,,,,,,,,,,PM,,,,3.0,ZACK WIRTH (SD-9),,"6,000","DOORHANGER DESIGN, PRINTING & PRODUCTION",N,,,,,,,,ZACK WIRTH,SENATE DISTRICT 9,REP,STATE SENATOR DISTRICT 9
AMERICANS FOR PROSPERITY - MONTANA,expenditure,04/26/2026 to 05/24/2026,C4,2026-04-27 00:00:00,FCG MAIL LLC,,,,558 E CASTLE PINES PKWY STE B-4 BOX 333,CASTLE PINES,CO,80108.0,,-2449.0,,,,,,DOORHANGER,,,,,,,,,,,PM,,,,3.0,STEVE LAPRAIM (SD-42),,"6,000","DOORHANGER DESIGN, PRINTING & PRODUCTION",N,,,,,,,,STEPHEN LAPRAIM,SENATE DISTRICT 42,REP,STATE SENATOR DISTRICT 42
AMERICANS FOR PROSPERITY - MONTANA,expenditure,03/26/2026 to 04/25/2026,C4,2026-04-24 00:00:00,UNITED STATES POSTAL SERVICE,,,,470 L'ENFANT PLAZA SW STE 604,WASHINGTON,DC,20024.0,,-486.45,,,,,,Mailer,,,,,,,,,,,PM,,,,3.0,KIM DAILEY (HD-85),,"3,083",MAILER POSTAGE,N,,,,,,,,KIM DAILEY,HOUSE DISTRICT 85,REP,STATE REPRESENTATIVE DISTRICT 85
AMERICANS FOR PROSPERITY - MONTANA,expenditure,03/26/2026 to 04/25/2026,C4,2026-04-24 00:00:00,UNITED STATES POSTAL SERVICE,,,,470 L'ENFANT PLAZA SW STE 604,WASHINGTON,DC,20024.0,,-214.36,,,,,,Mailer,,,,,,,,,,,PM,,,,3.0,TONY ROSALES (HD-20),,"1,355",MAILER POSTAGE,N,,,,,,,,TONY ROSALES,HOUSE DISTRICT 20,REP,STATE REPRESENTATIVE DISTRICT 20
AMERICANS FOR PROSPERITY - MONTANA,expenditure,03/26/2026 to 04/25/2026,C4,2026-04-24 00:00:00,UNITED STATES POSTAL SERVICE,,,,470 L'ENFANT PLAZA SW STE 604,WASHINGTON,DC,20024.0,,-443.79,,,,,,Mailer,,,,,,,,,,,PM,,,,3.0,JOHN SOUTH (HD-28),,"2,683",MAILER POSTAGE,N,,,,,,,,JOHN SOUTH,HOUSE DISTRICT 28,REP,STATE REPRESENTATIVE DISTRICT 28
AMERICANS FOR PROSPERITY - MONTANA,expenditure,03/26/2026 to 04/25/2026,C4,2026-04-24 00:00:00,UNITED STATES POSTAL SERVICE,,,,470 L'ENFANT PLAZA SW STE 604,WASHINGTON,DC,20024.0,,-413.79,,,,,,Mailer,,,,,,,,,,,PM,,,,3.0,LINDA HARMON (HD-29),,"2,515",MAILER POSTAGE,N,,,,,,,,LINDA HARMON,HOUSE DISTRICT 29,REP,STATE REPRESENTATIVE DISTRICT 29
AMERICANS FOR PROSPERITY - MONTANA,expenditure,03/26/2026 to 04/25/2026,C4,2026-04-24 00:00:00,UNITED STATES POSTAL SERVICE,,,,470 L'ENFANT PLAZA SW STE 604,WASHINGTON,DC,20024.0,,-317.45,,,,,,Mailer ,,,,,,,,,,,PM,,,,3.0,MARY HORMAN (HD-55),,"1,973",MAILER POSTAGE,N,,,,,,,,MARY HORMAN,HOUSE DISTRICT 55,REP,STATE REPRESENTATIVE DISTRICT 55
AMERICANS FOR PROSPERITY - MONTANA,expenditure,03/26/2026 to 04/25/2026,C4,2026-04-24 00:00:00,UNITED STATES POSTAL SERVICE,,,,470 L'ENFANT PLAZA SW STE 604,WASHINGTON,DC,20024.0,,-315.74,,,,,,Mailer,,,,,,,,,,,PM,,,,3.0,FINLEY WARDEN (HD-13),,"2,002",MAILER POSTAGE,N,,,,,,,,FINLEY WARDEN,HOUSE DISTRICT 13,REP,STATE REPRESENTATIVE DISTRICT 13
AMERICANS FOR PROSPERITY - MONTANA,expenditure,03/26/2026 to 04/25/2026,C4,2026-04-24 00:00:00,UNITED STATES POSTAL SERVICE,,,,470 L'ENFANT PLAZA SW STE 604,WASHINGTON,DC,20024.0,,-628.64,,,,,,Mailer,,,,,,,,,,,PM,,,,3.0,STEVE LAPRAIM (SD-42),,"4,031",MAILER POSTAGE,N,,,,,,,,STEPHEN LAPRAIM,SENATE DISTRICT 42,REP,STATE SENATOR DISTRICT 42
AMERICANS FOR PROSPERITY - MONTANA,expenditure,03/26/2026 to 04/25/2026,C4,2026-04-24 00:00:00,UNITED STATES POSTAL SERVICE,,,,470 L'ENFANT PLAZA SW STE 604,WASHINGTON,DC,20024.0,,-569.19,,,,,,Mailer,,,,,,,,,,,PM,,,,3.0,CALEB HINKLE (SD-34),,"3,635",MAILER POSTAGE,N,,,,,,,,CALEB HINKLE,SENATE DISTRICT 34,REP,STATE SENATOR DISTRICT 34
AMERICANS FOR PROSPERITY - MONTANA,expenditure,03/26/2026 to 04/25/2026,C4,2026-04-24 00:00:00,UNITED STATES POSTAL SERVICE,,,,470 L'ENFANT PLAZA SW STE 604,WASHINGTON,DC,20024.0,,-262.17,,,,,,Mailer,,,,,,,,,,,PM,,,,3.0,TREVOR FUNSETH (HD-21),,"1,672",MAILER POSTAGE,N,,,,,,,,TREVOR P FUNSETH,HOUSE DISTRICT 21,REP,STATE REPRESENTATIVE DISTRICT 21
AMERICANS FOR PROSPERITY - MONTANA,expenditure,03/26/2026 to 04/25/2026,C4,2026-04-24 00:00:00,UNITED STATES POSTAL SERVICE,,,,470 L'ENFANT PLAZA SW STE 604,WASHINGTON,DC,20024.0,,-489.6,,,,,,Mailer,,,,,,,,,,,PM,,,,3.0,TREVOR WALTER (HD-69),,"3,035",MAILER POSTAGE,N,,,,,,,,TREVOR WALTER,HOUSE DISTRICT 69,REP,STATE REPRESENTATIVE DISTRICT 69
AMERICANS FOR PROSPERITY - MONTANA,expenditure,03/26/2026 to 04/25/2026,C4,2026-04-24 00:00:00,UNITED STATES POSTAL SERVICE,,,,470 L'ENFANT PLAZA SW STE 604,WASHINGTON,DC,20024.0,,-882.14,,,,,,Mailer,,,,,,,,,,,PM,,,,3.0,ZACK WIRTH (SD-9),,"5,513",MAILER POSTAGE,N,,,,,,,,ZACK WIRTH,SENATE DISTRICT 9,REP,STATE SENATOR DISTRICT 9
AMERICANS FOR PROSPERITY - MONTANA,expenditure,03/26/2026 to 04/25/2026,C4,2026-04-24 00:00:00,UNITED STATES POSTAL SERVICE,,,,470 L'ENFANT PLAZA SW STE 604,WASHINGTON,DC,20024.0,,-841.09,,,,,,Mailer ,,,,,,,,,,,PM,,,,3.0,KATHY LOVE (SD-43),,"5,369",MAILER POSTAGE,N,,,,,,,,KATHY LOVE,SENATE DISTRICT 43,REP,STATE SENATOR DISTRICT 43
AMERICANS FOR PROSPERITY - MONTANA,expenditure,03/26/2026 to 04/25/2026,C4,2026-04-07 00:00:00,UNITED STATES POSTAL SERVICE,,,,470 L'ENFANT PLAZA SW STE 604,WASHINGTON,DC,20024.0,,-486.45,,,,,,Mailer,,,,,,,,,,,PM,,,,3.0,KIM DAILEY (HD-85),,"3,083",MAILER POSTAGE,N,,,,,,,,KIM DAILEY,HOUSE DISTRICT 85,REP,STATE REPRESENTATIVE DISTRICT 85
AMERICANS FOR PROSPERITY - MONTANA,expenditure,03/26/2026 to 04/25/2026,C4,2026-04-07 00:00:00,UNITED STATES POSTAL SERVICE,,,,470 L'ENFANT PLAZA SW STE 604,WASHINGTON,DC,20024.0,,-628.64,,,,,,Mailer,,,,,,,,,,,PM,,,,3.0,STEVE LAPRAIM (SD-42),,"4,031",MAILER POSTAGE,N,,,,,,,,STEPHEN LAPRAIM,SENATE DISTRICT 42,REP,STATE SENATOR DISTRICT 42
AMERICANS FOR PROSPERITY - MONTANA,expenditure,03/26/2026 to 04/25/2026,C4,2026-04-07 00:00:00,UNITED STATES POSTAL SERVICE,,,,470 L'ENFANT PLAZA SW STE 604,WASHINGTON,DC,20024.0,,-413.79,,,,,,Mailer,,,,,,,,,,,PM,,,,3.0,LINDA HARMON (HD-29),,"2,515",MAILER POSTAGE,N,,,,,,,,LINDA HARMON,HOUSE DISTRICT 29,REP,STATE REPRESENTATIVE DISTRICT 29
AMERICANS FOR PROSPERITY - MONTANA,expenditure,03/26/2026 to 04/25/2026,C4,2026-04-07 00:00:00,UNITED STATES POSTAL SERVICE,,,,470 L'ENFANT PLAZA SW STE 604,WASHINGTON,DC,20024.0,,-317.45,,,,,,Mailer,,,,,,,,,,,PM,,,,3.0,MARY HORMAN (HD-55),,"1,973",MAILER POSTAGE,N,,,,,,,,MARY HORMAN,HOUSE DISTRICT 55,REP,STATE REPRESENTATIVE DISTRICT 55
AMERICANS FOR PROSPERITY - MONTANA,expenditure,03/26/2026 to 04/25/2026,C4,2026-04-07 00:00:00,UNITED STATES POSTAL SERVICE,,,,470 L'ENFANT PLAZA SW STE 604,WASHINGTON,DC,20024.0,,-214.36,,,,,,Mailer,,,,,,,,,,,PM,,,,3.0,TONY ROSALES (HD-20),,"1,355",MAILER POSTAGE,N,,,,,,,,TONY ROSALES,HOUSE DISTRICT 20,REP,STATE REPRESENTATIVE DISTRICT 20
AMERICANS FOR PROSPERITY - MONTANA,expenditure,03/26/2026 to 04/25/2026,C4,2026-04-07 00:00:00,UNITED STATES POSTAL SERVICE,,,,470 L'ENFANT PLAZA SW STE 604,WASHINGTON,DC,20024.0,,-262.17,,,,,,Mailer,,,,,,,,,,,PM,,,,3.0,TREVOR FUNSETH (HD-21),,"1,672",MAILER POSTAGE,N,,,,,,,,TREVOR P FUNSETH,HOUSE DISTRICT 21,REP,STATE REPRESENTATIVE DISTRICT 21
AMERICANS FOR PROSPERITY - MONTANA,expenditure,03/26/2026 to 04/25/2026,C4,2026-04-07 00:00:00,UNITED STATES POSTAL SERVICE,,,,470 L'ENFANT PLAZA SW STE 604,WASHINGTON,DC,20024.0,,-489.6,,,,,,Mailer,,,,,,,,,,,PM,,,,3.0,TREVOR WALTER (HD-69),,"3,035",MAILER POSTAGE,N,,,,,,,,TREVOR WALTER,HOUSE DISTRICT 69,REP,STATE REPRESENTATIVE DISTRICT 69
AMERICANS FOR PROSPERITY - MONTANA,expenditure,03/26/2026 to 04/25/2026,C4,2026-04-07 00:00:00,UNITED STATES POSTAL SERVICE,,,,470 L'ENFANT PLAZA SW STE 604,WASHINGTON,DC,20024.0,,-443.79,,,,,,Mailer,,,,,,,,,,,PM,,,,3.0,JOHN SOUTH (HD-28),,"2,683",MAILER POSTAGE,N,,,,,,,,JOHN SOUTH,HOUSE DISTRICT 28,REP,STATE REPRESENTATIVE DISTRICT 28
AMERICANS FOR PROSPERITY - MONTANA,expenditure,03/26/2026 to 04/25/2026,C4,2026-04-07 00:00:00,UNITED STATES POSTAL SERVICE,,,,470 L'ENFANT PLAZA SW STE 604,WASHINGTON,DC,20024.0,,-315.75,,,,,,Mailer,,,,,,,,,,,PM,,,,3.0,FINLEY WARDEN (HD-13),,"2,002",MAILER POSTAGE,N,,,,,,,,FINLEY WARDEN,HOUSE DISTRICT 13,REP,STATE REPRESENTATIVE DISTRICT 13
AMERICANS FOR PROSPERITY - MONTANA,expenditure,03/26/2026 to 04/25/2026,C4,2026-04-07 00:00:00,UNITED STATES POSTAL SERVICE,,,,470 L'ENFANT PLAZA SW STE 604,WASHINGTON,DC,20024.0,,-412.36,,,,,,Mailer,,,,,,,,,,,PM,,,,3.0,TRISH SHREIBER (HD-76),,"2,518",MAILER POSTAGE,N,,,,,,,,TRISH SCHREIBER,HOUSE DISTRICT 76,REP,STATE REPRESENTATIVE DISTRICT 76
AMERICANS FOR PROSPERITY - MONTANA,expenditure,03/26/2026 to 04/25/2026,C4,2026-04-07 00:00:00,UNITED STATES POSTAL SERVICE,,,,470 L'ENFANT PLAZA SW STE 604,WASHINGTON,DC,20024.0,,-882.14,,,,,,Mailer,,,,,,,,,,,PM,,,,3.0,ZACK WIRTH (SD-9),,"5,513",MAILER POSTAGE,N,,,,,,,,ZACK WIRTH,SENATE DISTRICT 9,REP,STATE SENATOR DISTRICT 9
AMERICANS FOR PROSPERITY - MONTANA,expenditure,03/26/2026 to 04/25/2026,C4,2026-04-07 00:00:00,UNITED STATES POSTAL SERVICE,,,,470 L'ENFANT PLAZA SW STE 604,WASHINGTON,DC,20024.0,,-841.09,,,,,,Mailer,,,,,,,,,,,PM,,,,3.0,KATHY LOVE (SD-43),,"5,369",MAILER POSTAGE,N,,,,,,,,KATHY LOVE,SENATE DISTRICT 43,REP,STATE SENATOR DISTRICT 43
AMERICANS FOR PROSPERITY - MONTANA,expenditure,03/26/2026 to 04/25/2026,C4,2026-04-07 00:00:00,UNITED STATES POSTAL SERVICE,,,,470 L'ENFANT PLAZA SW STE 604,WASHINGTON,DC,20024.0,,-569.19,,,,,,Mailer,,,,,,,,,,,PM,,,,3.0,CALEB HINKLE (SD-34),,"3,635",MAILER POSTAGE,N,,,,,,,,CALEB HINKLE,SENATE DISTRICT 34,REP,STATE SENATOR DISTRICT 34
AMERICANS FOR PROSPERITY - MONTANA,expenditure,03/26/2026 to 04/25/2026,C4,2026-03-30 00:00:00,UNITED STATES POSTAL SERVICE,,,,470 L'ENFANT PLAZA SW STE 604,WASHINGTON,DC,20024.0,,-628.64,,,,,,Mailer,,,,,,,,,,,PM,,,,3.0,STEVE LAPRAIM (SD-42),,"4,031",MAILER POSTAGE,N,,,,,,,,STEPHEN LAPRAIM,SENATE DISTRICT 42,REP,STATE SENATOR DISTRICT 42
AMERICANS FOR PROSPERITY - MONTANA,expenditure,03/26/2026 to 04/25/2026,C4,2026-03-30 00:00:00,UNITED STATES POSTAL SERVICE,,,,470 L'ENFANT PLAZA SW STE 604,WASHINGTON,DC,20024.0,,-262.17,,,,,,Mailer,,,,,,,,,,,PM,,,,3.0,TREVOR FUNSETH (HD-21),,"1,672",MAILER POSTAGE,N,,,,,,,,TREVOR P FUNSETH,HOUSE DISTRICT 21,REP,STATE REPRESENTATIVE DISTRICT 21
AMERICANS FOR PROSPERITY - MONTANA,expenditure,03/26/2026 to 04/25/2026,C4,2026-03-30 00:00:00,UNITED STATES POSTAL SERVICE,,,,470 L'ENFANT PLAZA SW STE 604,WASHINGTON,DC,20024.0,,-317.45,,,,,,Mailer,,,,,,,,,,,PM,,,,3.0,MARY HORMAN (HD-55),,"1,973",MAILER POSTAGE,N,,,,,,,,MARY HORMAN,HOUSE DISTRICT 55,REP,STATE REPRESENTATIVE DISTRICT 55
AMERICANS FOR PROSPERITY - MONTANA,expenditure,03/26/2026 to 04/25/2026,C4,2026-03-30 00:00:00,UNITED STATES POSTAL SERVICE,,,,470 L'ENFANT PLAZA SW STE 604,WASHINGTON,DC,20024.0,,-882.14,,,,,,Mailer,,,,,,,,,,,PM,,,,3.0,ZACK WIRTH (SD-9),,"5,513",MAILER POSTAGE,N,,,,,,,,ZACK WIRTH,SENATE DISTRICT 9,REP,STATE SENATOR DISTRICT 9
AMERICANS FOR PROSPERITY - MONTANA,expenditure,03/26/2026 to 04/25/2026,C4,2026-03-30 00:00:00,UNITED STATES POSTAL SERVICE,,,,470 L'ENFANT PLAZA SW STE 604,WASHINGTON,DC,20024.0,,-841.09,,,,,,Mailer,,,,,,,,,,,PM,,,,3.0,KATHY LOVE (SD-43),,"5,369",MAILER POSTAGE,N,,,,,,,,KATHY LOVE,SENATE DISTRICT 43,REP,STATE SENATOR DISTRICT 43
AMERICANS FOR PROSPERITY - MONTANA,expenditure,03/26/2026 to 04/25/2026,C4,2026-03-30 00:00:00,UNITED STATES POSTAL SERVICE,,,,470 L'ENFANT PLAZA SW STE 604,WASHINGTON,DC,20024.0,,-569.19,,,,,,Mailer,,,,,,,,,,,PM,,,,3.0,CALEB HINKLE (SD-34),,"3,635",MAILER POSTAGE,N,,,,,,,,CALEB HINKLE,SENATE DISTRICT 34,REP,STATE SENATOR DISTRICT 34
AMERICANS FOR PROSPERITY - MONTANA,expenditure,03/26/2026 to 04/25/2026,C4,2026-03-26 00:00:00,CANVASS AMERICA,,,,"45 N HILL DR, STE 100",WARRENTON,VA,20186.0,,-2351.0,,,,,,Canvassing,,,,,,,,,,,PM,,,,3.0,TONY ROSALES (HD-20),DOORKNOCKING,3/26/26-4/25/26,DOORKNOCKING,N,,,,,,,,TONY ROSALES,HOUSE DISTRICT 20,REP,STATE REPRESENTATIVE DISTRICT 20
AMERICANS FOR PROSPERITY - MONTANA,expenditure,03/26/2026 to 04/25/2026,C4,2026-03-26 00:00:00,CANVASS AMERICA,,,,"45 N HILL DR, STE 100",WARRENTON,VA,20186.0,,-2351.0,,,,,,Canvassing,,,,,,,,,,,PM,,,,3.0,JOHN SOUTH (HD-28),DOORKNOCKING,3/26/26-4/25/26,DOORKNOCKING,N,,,,,,,,JOHN SOUTH,HOUSE DISTRICT 28,REP,STATE REPRESENTATIVE DISTRICT 28
AMERICANS FOR PROSPERITY - MONTANA,expenditure,03/26/2026 to 04/25/2026,C4,2026-03-26 00:00:00,CANVASS AMERICA,,,,"45 N HILL DR, STE 100",WARRENTON,VA,20186.0,,-852.0,,,,,,Canvassing,,,,,,,,,,,PM,,,,3.0,LINDA HARMON (HD-29),DOORKNOCKING,3/26/26-4/25/26,DOORKNOCKING,N,,,,,,,,LINDA HARMON,HOUSE DISTRICT 29,REP,STATE REPRESENTATIVE DISTRICT 29
AMERICANS FOR PROSPERITY - MONTANA,expenditure,03/26/2026 to 04/25/2026,C4,2026-03-26 00:00:00,CANVASS AMERICA,,,,"45 N HILL DR, STE 100",WARRENTON,VA,20186.0,,-2351.0,,,,,,Canvassing,,,,,,,,,,,PM,,,,3.0,KIM DAILEY (HD-85),DOORKNOCKING,3/26/26-4/25/26,DOORKNOCKING,N,,,,,,,,KIM DAILEY,HOUSE DISTRICT 85,REP,STATE REPRESENTATIVE DISTRICT 85
AMERICANS FOR PROSPERITY - MONTANA,expenditure,03/26/2026 to 04/25/2026,C4,2026-03-26 00:00:00,CANVASS AMERICA,,,,"45 N HILL DR, STE 100",WARRENTON,VA,20186.0,,-3599.0,,,,,,Canvassing,,,,,,,,,,,PM,,,,3.0,FINLEY WARDEN (HD-13),DOORKNOCKING,3/26/26-4/25/26,DOORKNOCKING,N,,,,,,,,FINLEY WARDEN,HOUSE DISTRICT 13,REP,STATE REPRESENTATIVE DISTRICT 13
AMERICANS FOR PROSPERITY - MONTANA,expenditure,03/26/2026 to 04/25/2026,C4,2026-03-26 00:00:00,CANVASS AMERICA,,,,"45 N HILL DR, STE 100",WARRENTON,VA,20186.0,,-3544.0,,,,,,Canvassing,,,,,,,,,,,PM,,,,3.0,MARY HORMAN (HD-55),DOORKNOCKING,3/26/26-4/25/26,DOORKNOCKING,N,,,,,,,,MARY HORMAN,HOUSE DISTRICT 55,REP,STATE REPRESENTATIVE DISTRICT 55
AMERICANS FOR PROSPERITY - MONTANA,expenditure,03/26/2026 to 04/25/2026,C4,2026-03-26 00:00:00,CANVASS AMERICA,,,,"45 N HILL DR, STE 100",WARRENTON,VA,20186.0,,-4206.0,,,,,,Canvassing,,,,,,,,,,,PM,,,,3.0,STEVE LAPRAIM (SD-42),DOORKNOCKING,3/26/26-4/25/26,DOORKNOCKING,N,,,,,,,,STEPHEN LAPRAIM,SENATE DISTRICT 42,REP,STATE SENATOR DISTRICT 42
AMERICANS FOR PROSPERITY - MONTANA,expenditure,03/26/2026 to 04/25/2026,C4,2026-03-26 00:00:00,CANVASS AMERICA,,,,"45 N HILL DR, STE 100",WARRENTON,VA,20186.0,,-8924.0,,,,,,Canvassing,,,,,,,,,,,PM,,,,3.0,ZACK WIRTH (SD-9),DOORKNOCKING,3/26/26-4/25/26,DOORKNOCKING,N,,,,,,,,ZACK WIRTH,SENATE DISTRICT 9,REP,STATE SENATOR DISTRICT 9
AMERICANS FOR PROSPERITY - MONTANA,expenditure,03/26/2026 to 04/25/2026,C4,2026-03-26 00:00:00,CANVASS AMERICA,,,,"45 N HILL DR, STE 100",WARRENTON,VA,20186.0,,-4206.0,,,,,,Canvassing,,,,,,,,,,,PM,,,,3.0,TREVOR FUNSETH (HD-21),DOORKNOCKING,3/26/26-4/25/26,DOORKNOCKING,N,,,,,,,,TREVOR P FUNSETH,HOUSE DISTRICT 21,REP,STATE REPRESENTATIVE DISTRICT 21
AMERICANS FOR PROSPERITY - MONTANA,expenditure,03/26/2026 to 04/25/2026,C4,2026-03-26 00:00:00,CANVASS AMERICA,,,,"45 N HILL DR, STE 100",WARRENTON,VA,20186.0,,-2762.0,,,,,,Canvassing,,,,,,,,,,,PM,,,,3.0,TREVOR WALTER  (HD-69),DOORKNOCKING,3/26/26-4/25/26,DOORKNOCKING,N,,,,,,,,TREVOR WALTER,HOUSE DISTRICT 69,REP,STATE REPRESENTATIVE DISTRICT 69
AMERICANS FOR PROSPERITY - MONTANA,expenditure,03/26/2026 to 04/25/2026,C4,2026-03-26 00:00:00,CANVASS AMERICA,,,,"45 N HILL DR, STE 100",WARRENTON,VA,20186.0,,-2762.0,,,,,,Canvassing,,,,,,,,,,,PM,,,,3.0,TRISH SCHREIBER (HD-76),DOORKNOCKING,3/26/26-4/25/26,DOORKNOCKING,N,,,,,,,,TRISH SCHREIBER,HOUSE DISTRICT 76,REP,STATE REPRESENTATIVE DISTRICT 76
AMERICANS FOR PROSPERITY - MONTANA,expenditure,03/26/2026 to 04/25/2026,C4,2026-03-26 00:00:00,Canvass America,,,,"45 N HILL DR, STE 100",WARRENTON,VA,20186.0,,-4622.0,,,,,,Canvassing,,,,,,,,,,,PM,,,,3.0,KATHY LOVE (SD-43),DOORKNOCKING,3/26/26-4/25/26,DOORKNOCKING,N,,,,,,,,KATHY LOVE,SENATE DISTRICT 43,REP,STATE SENATOR DISTRICT 43
AMERICANS FOR PROSPERITY - MONTANA,expenditure,03/26/2026 to 04/25/2026,C4,2026-03-26 00:00:00,Canvass America,,,,45 N HILL DR STE 100,WARRENTON,VA,20186.0,,-4625.0,,,,,,Canvassing,,,,,,,,,,,PM,,,,3.0,CALEB HINKLE (SD-34),DOORKNOCKING,3/26/26-4/25/26,DOORKNOCKING,N,,,,,,,,CALEB HINKLE,SENATE DISTRICT 34,REP,STATE SENATOR DISTRICT 34
AMERICANS FOR PROSPERITY - MONTANA,expenditure,03/26/2026 to 04/25/2026,C4,2026-03-26 00:00:00,AMERICANS FOR PROSPERITY,,,,4201 WILSON BLVD STE 1000,ARLINGTON,VA,22203.0,,-97.53,,,,,,Canvassing,,,,,,,,,,,PM,,,,3.0,KIM DAILEY (HD-85),DOORKNOCKING,3/26/26-3/31/26,DOORKNOCKING,N,,,,,,,,KIM DAILEY,HOUSE DISTRICT 85,REP,STATE REPRESENTATIVE DISTRICT 85
AMERICANS FOR PROSPERITY - MONTANA,expenditure,03/26/2026 to 04/25/2026,C4,2026-04-24 00:00:00,FCG MAIL LLC,,,,558 E CASTLE PINES PKWY STE B-4 BOX 333,CASTLE PINES,CO,80108.0,,-1894.62,,,,,,Mailer,,,,,,,,,,,PM,,,,3.0,KIM DAILEY (HD-85),,"3,083","MAILER DESIGN, PRINTING, AND PRODUCTION",N,,,,,,,,KIM DAILEY,HOUSE DISTRICT 85,REP,STATE REPRESENTATIVE DISTRICT 85
AMERICANS FOR PROSPERITY - MONTANA,expenditure,03/26/2026 to 04/25/2026,C4,2026-04-24 00:00:00,FCG MAIL LLC,,,,558 E CASTLE PINES PKWY STE B-4 BOX 333,CASTLE PINES,CO,80108.0,,-1356.3,,,,,,Mailer,,,,,,,,,,,PM,,,,3.0,TONY ROSALES (HD-20),,"1,355","MAILER DESIGN, PRINTING, AND PRODUCTION",N,,,,,,,,TONY ROSALES,HOUSE DISTRICT 20,REP,STATE REPRESENTATIVE DISTRICT 20
AMERICANS FOR PROSPERITY - MONTANA,expenditure,03/26/2026 to 04/25/2026,C4,2026-04-24 00:00:00,FCG MAIL LLC,,,,558 E CASTLE PINES PKWY STE B-4 BOX 333,CASTLE PINES,CO,80108.0,,-1814.83,,,,,,Mailer,,,,,,,,,,,PM,,,,3.0,JOHN SOUTH (HD-28),,"2,683","MAILER DESIGN, PRINTING, AND PRODUCTION",N,,,,,,,,JOHN SOUTH,HOUSE DISTRICT 28,REP,STATE REPRESENTATIVE DISTRICT 28
AMERICANS FOR PROSPERITY - MONTANA,expenditure,03/26/2026 to 04/25/2026,C4,2026-04-24 00:00:00,FCG MAIL LLC,,,,558 E CASTLE PINES PKWY STE B-4 BOX 333,CASTLE PINES,CO,80108.0,,-1775.5,,,,,,Mailer,,,,,,,,,,,PM,,,,3.0,LINDA HARMON (HD-29),,"2,515","MAILER DESIGN, PRINTING, AND PRODUCTION",N,,,,,,,,LINDA HARMON,HOUSE DISTRICT 29,REP,STATE REPRESENTATIVE DISTRICT 29
AMERICANS FOR PROSPERITY - MONTANA,expenditure,03/26/2026 to 04/25/2026,C4,2026-04-24 00:00:00,FCG MAIL LLC,,,,558 E CASTLE PINES PKWY STE B-4 BOX 333,CASTLE PINES,CO,80108.0,,-1659.25,,,,,,Mailer,,,,,,,,,,,PM,,,,3.0,MARY HORMAN (HD-55),,"1,973","MAILER DESIGN, PRINTING, AND PRODUCTION",N,,,,,,,,MARY HORMAN,HOUSE DISTRICT 55,REP,STATE REPRESENTATIVE DISTRICT 55
AMERICANS FOR PROSPERITY - MONTANA,expenditure,03/26/2026 to 04/25/2026,C4,2026-04-24 00:00:00,FCG MAIL LLC,,,,558 E CASTLE PINES PKWY STE B-4 BOX 333,CASTLE PINES,CO,80108.0,,-1671.89,,,,,,Mailer,,,,,,,,,,,PM,,,,3.0,FINLEY WARDEN (HD-13),,"2,002","MAILER DESIGN, PRINTING, AND PRODUCTION",N,,,,,,,,FINLEY WARDEN,HOUSE DISTRICT 13,REP,STATE REPRESENTATIVE DISTRICT 13
AMERICANS FOR PROSPERITY - MONTANA,expenditure,03/26/2026 to 04/25/2026,C4,2026-04-24 00:00:00,FCG MAIL LLC,,,,558 E CASTLE PINES PKWY STE B-4 BOX 333,CASTLE PINES,CO,80108.0,,-2221.07,,,,,,Mailer,,,,,,,,,,,PM,,,,3.0,STEVE LAPRAIM (SD-42),,"4,031","MAILER DESIGN, PRINTING, AND PRODUCTION",N,,,,,,,,STEPHEN LAPRAIM,SENATE DISTRICT 42,REP,STATE SENATOR DISTRICT 42
AMERICANS FOR PROSPERITY - MONTANA,expenditure,03/26/2026 to 04/25/2026,C4,2026-04-24 00:00:00,FCG MAIL LLC,,,,558 E CASTLE PINES PKWY STE B-4 BOX 333,CASTLE PINES,CO,80108.0,,-2049.45,,,,,,Mailer,,,,,,,,,,,PM,,,,3.0,CALEB HINKLE (SD-34),,"3,635","MAILER DESIGN, PRINTING, AND PRODUCTION",N,,,,,,,,CALEB HINKLE,SENATE DISTRICT 34,REP,STATE SENATOR DISTRICT 34
AMERICANS FOR PROSPERITY - MONTANA,expenditure,03/26/2026 to 04/25/2026,C4,2026-04-24 00:00:00,FCG MAIL LLC,,,,558 E CASTLE PINES PKWY STE B-4 BOX 333,CASTLE PINES,CO,80108.0,,-1518.51,,,,,,Mailer,,,,,,,,,,,PM,,,,3.0,TREVOR FUNSETH (HD-9),,"1,672","MAILER DESIGN, PRINTING, AND PRODUCTION",N,,,,,,,,TREVOR P FUNSETH,HOUSE DISTRICT 21,REP,STATE REPRESENTATIVE DISTRICT 21
AMERICANS FOR PROSPERITY - MONTANA,expenditure,03/26/2026 to 04/25/2026,C4,2026-04-24 00:00:00,FCG MAIL LLC,,,,558 E CASTLE PINES PKWY STE B-4 BOX 333,CASTLE PINES,CO,80108.0,,-1882.32,,,,,,Mailer,,,,,,,,,,,PM,,,,3.0,TREVOR WALTER (HD-69),,"3,035","MAILER DESIGN, PRINTING, AND PRODUCTION",N,,,,,,,,TREVOR WALTER,HOUSE DISTRICT 69,REP,STATE REPRESENTATIVE DISTRICT 69
AMERICANS FOR PROSPERITY - MONTANA,expenditure,03/26/2026 to 04/25/2026,C4,2026-04-24 00:00:00,FCG MAIL LLC,,,,558 E CASTLE PINES PKWY STE B-4 BOX 333,CASTLE PINES,CO,80108.0,,-2591.41,,,,,,Mailer,,,,,,,,,,,PM,,,,3.0,ZACK WIRTH (SD-9),,"5,513","MAILER DESIGN, PRINTING, AND PRODUCTION",N,,,,,,,,ZACK WIRTH,SENATE DISTRICT 9,REP,STATE SENATOR DISTRICT 9
AMERICANS FOR PROSPERITY - MONTANA,expenditure,03/26/2026 to 04/25/2026,C4,2026-04-24 00:00:00,FCG MAIL LLC,,,,558 E CASTLE PINES PKWY STE B-4 BOX 333,CASTLE PINES,CO,80108.0,,-2546.98,,,,,,Mailer,,,,,,,,,,,PM,,,,3.0,KATHY LOVE (SD-43),,"5,369","MAILER DESIGN, PRINTING, AND PRODUCTION",N,,,,,,,,KATHY LOVE,SENATE DISTRICT 43,REP,STATE SENATOR DISTRICT 43
AMERICANS FOR PROSPERITY - MONTANA,expenditure,03/26/2026 to 04/25/2026,C4,2026-04-07 00:00:00,FCG MAIL LLC,,,,558 E CASTLE PINES PKWY STE B-4 BOX 333,CASTLE PINES,CO,80108.0,,-1880.47,,,,,,Mailer,,,,,,,,,,,PM,,,,3.0,KIM DAILEY (HD-85),,"3,083","MAILER DESIGN, PRINTING, AND PRODUCTION",N,,,,,,,,KIM DAILEY,HOUSE DISTRICT 85,REP,STATE REPRESENTATIVE DISTRICT 85
AMERICANS FOR PROSPERITY - MONTANA,expenditure,03/26/2026 to 04/25/2026,C4,2026-03-26 00:00:00,AMERICANS FOR PROSPERITY,,,,4201 WILSON BLVD STE 1000,ARLINGTON,VA,22203.0,,-97.53,,,,,,Canvassing,,,,,,,,,,,PM,,,,3.0,TONY ROSALES (HD-20),DOORKNOCKING,3/26/26-3/31/26,DOORKNOCKING,N,,,,,,,,TONY ROSALES,HOUSE DISTRICT 20,REP,STATE REPRESENTATIVE DISTRICT 20
AMERICANS FOR PROSPERITY - MONTANA,expenditure,03/26/2026 to 04/25/2026,C4,2026-03-26 00:00:00,AMERICANS FOR PROSPERITY,,,,4201 WILSON BLVD STE 1000,ARLINGTON,VA,22203.0,,-97.53,,,,,,Canvassing,,,,,,,,,,,PM,,,,3.0,LINDA HARMON (HD-29),DOORKNOCKING,3/26/26-3/31/26,DOORKNOCKING,N,,,,,,,,LINDA HARMON,HOUSE DISTRICT 29,REP,STATE REPRESENTATIVE DISTRICT 29
AMERICANS FOR PROSPERITY - MONTANA,expenditure,03/26/2026 to 04/25/2026,C4,2026-03-26 00:00:00,AMERICANS FOR PROSPERITY,,,,4201 WILSON BLVD STE 1000,ARLINGTON,VA,22203.0,,-97.53,,,,,,Canvassing,,,,,,,,,,,PM,,,,3.0,JOHN SOUTH (HD-28),DOORKNOCKING,3/26/26-3/31/26,DOORKNOCKING,N,,,,,,,,JOHN SOUTH,HOUSE DISTRICT 28,REP,STATE REPRESENTATIVE DISTRICT 28
AMERICANS FOR PROSPERITY - MONTANA,expenditure,03/26/2026 to 04/25/2026,C4,2026-03-26 00:00:00,AMERICANS FOR PROSPERITY,,,,4201 WILSON BLVD STE 1000,ARLINGTON,VA,22203.0,,-97.53,,,,,,Canvassing,,,,,,,,,,,PM,,,,3.0,MARY HORMAN (HD-55),DOORKNOCKING,3/26/26-3/31/26,DOORKNOCKING,N,,,,,,,,MARY HORMAN,HOUSE DISTRICT 55,REP,STATE REPRESENTATIVE DISTRICT 55
AMERICANS FOR PROSPERITY - MONTANA,expenditure,03/26/2026 to 04/25/2026,C4,2026-03-26 00:00:00,AMERICANS FOR PROSPERITY,,,,4201 WILSON BLVD STE 1000,ARLINGTON,VA,22203.0,,-97.53,,,,,,Canvassing,,,,,,,,,,,PM,,,,3.0,FINLEY WARDEN (HD-13),DOORKNOCKING,3/26/26-3/31/26,DOORKNOCKING,N,,,,,,,,FINLEY WARDEN,HOUSE DISTRICT 13,REP,STATE REPRESENTATIVE DISTRICT 13
AMERICANS FOR PROSPERITY - MONTANA,expenditure,03/26/2026 to 04/25/2026,C4,2026-03-26 00:00:00,AMERICANS FOR PROSPERITY,,,,4201 WILSON BLVD STE 1000,ARLINGTON,VA,22203.0,,-97.53,,,,,,Canvassing,,,,,,,,,,,PM,,,,3.0,STEVE LAPRAIM (SD-42),DOORKNOCKING,3/26/26-3/31/26,DOORKNOCKING,N,,,,,,,,STEPHEN LAPRAIM,SENATE DISTRICT 42,REP,STATE SENATOR DISTRICT 42
AMERICANS FOR PROSPERITY - MONTANA,expenditure,03/26/2026 to 04/25/2026,C4,2026-03-26 00:00:00,AMERICANS FOR PROSPERITY,,,,4201 WILSON BLVD STE 1000,ARLINGTON,VA,22203.0,,-97.53,,,,,,Canvassing,,,,,,,,,,,PM,,,,3.0,TREVOR FUNSETH (HD-21),DOORKNOCKING,3/26/26-3/31/26,DOORKNOCKING,N,,,,,,,,TREVOR P FUNSETH,HOUSE DISTRICT 21,REP,STATE REPRESENTATIVE DISTRICT 21
AMERICANS FOR PROSPERITY - MONTANA,expenditure,03/26/2026 to 04/25/2026,C4,2026-03-26 00:00:00,AMERICANS FOR PROSPERITY,,,,4201 WILSON BLVD STE 1000,ARLINGTON,VA,22203.0,,-97.53,,,,,,Canvassing,,,,,,,,,,,PM,,,,3.0,CALEB HINKLE (SD-34),DOORKNOCKING,3/26/26-3/31/26,DOORKNOCKING,N,,,,,,,,CALEB HINKLE,SENATE DISTRICT 34,REP,STATE SENATOR DISTRICT 34
AMERICANS FOR PROSPERITY - MONTANA,expenditure,03/26/2026 to 04/25/2026,C4,2026-03-26 00:00:00,AMERICANS FOR PROSPERITY,,,,4201 WILSON BLVD STE 1000,ARLINGTON,VA,22203.0,,-97.53,,,,,,Canvassing,,,,,,,,,,,PM,,,,3.0,TREVOR WALTER (HD-69),DOORKNOCKING,3/26/26-3/31/26,DOORKNOCKING,N,,,,,,,,TREVOR WALTER,HOUSE DISTRICT 69,REP,STATE REPRESENTATIVE DISTRICT 69
AMERICANS FOR PROSPERITY - MONTANA,expenditure,03/26/2026 to 04/25/2026,C4,2026-03-26 00:00:00,AMERICANS FOR PROSPERITY,,,,4201 WILSON BLVD STE 1000,ARLINGTON,VA,22203.0,,-97.53,,,,,,Canvassing,,,,,,,,,,,PM,,,,3.0,TRISH SCHREIBER (HD-76),DOORKNOCKING,3/26/26-3/31/26,DOORKNOCKING,N,,,,,,,,TRISH SCHREIBER,HOUSE DISTRICT 76,REP,STATE REPRESENTATIVE DISTRICT 76
AMERICANS FOR PROSPERITY - MONTANA,expenditure,03/26/2026 to 04/25/2026,C4,2026-03-26 00:00:00,AMERICANS FOR PROSPERITY,,,,4201 WILSON BLVD STE 1000,ARLINGTON,VA,22203.0,,-97.53,,,,,,Canvassing,,,,,,,,,,,PM,,,,3.0,KATHY LOVE (SD-43),DOORKNOCKING,3/26/26-3/31/26,DOORKNOCKING,N,,,,,,,,KATHY LOVE,SENATE DISTRICT 43,REP,STATE SENATOR DISTRICT 43
AMERICANS FOR PROSPERITY - MONTANA,expenditure,03/26/2026 to 04/25/2026,C4,2026-03-26 00:00:00,AMERICANS FOR PROSPERITY,,,,4201 WILSON BLVD STE 1000,ARLINGTON,VA,22203.0,,-97.53,,,,,,Canvassing,,,,,,,,,,,PM,,,,3.0,ZACK WIRTH (SD-9),DOORKNOCKING,3/26/26-3/31/26,DOORKNOCKING,N,,,,,,,,ZACK WIRTH,SENATE DISTRICT 9,REP,STATE SENATOR DISTRICT 9
AMERICANS FOR PROSPERITY - MONTANA,expenditure,03/26/2026 to 04/25/2026,C4,2026-04-16 00:00:00,AMERICANS FOR PROSPERITY,,,,4201 WILSON BLVD STE 1000,ARLINGTON,VA,22203.0,,-1387.18,,,,,,Canvassing,,,,,,,,,,,PM,,,,3.0,KIM DAILEY (HD-85),DOORKNOCKING,4/16/26-4/25/26,DOORKNOCKING,N,,,,,,,,KIM DAILEY,HOUSE DISTRICT 85,REP,STATE REPRESENTATIVE DISTRICT 85
AMERICANS FOR PROSPERITY - MONTANA,expenditure,03/26/2026 to 04/25/2026,C4,2026-04-16 00:00:00,AMERICANS FOR PROSPERITY,,,,4201 WILSON BLVD STE 1000,ARLINGTON,VA,22203.0,,-1387.18,,,,,,Canvassing,,,,,,,,,,,PM,,,,3.0,TONY ROSALES (HD-20),DOORKNOCKING,4/16/26-4/25/26,DOORKNOCKING,N,,,,,,,,TONY ROSALES,HOUSE DISTRICT 20,REP,STATE REPRESENTATIVE DISTRICT 20
AMERICANS FOR PROSPERITY - MONTANA,expenditure,03/26/2026 to 04/25/2026,C4,2026-04-16 00:00:00,AMERICANS FOR PROSPERITY,,,,4201 WILSON BLVD STE 1000,ARLINGTON,VA,22203.0,,-346.79,,,,,,Canvassing,,,,,,,,,,,PM,,,,3.0,LINDA HARMON (HD-29),DOORKNOCKING,4/16/26-4/25/26,DOORKNOCKING,N,,,,,,,,LINDA HARMON,HOUSE DISTRICT 29,REP,STATE REPRESENTATIVE DISTRICT 29
AMERICANS FOR PROSPERITY - MONTANA,expenditure,03/26/2026 to 04/25/2026,C4,2026-04-16 00:00:00,AMERICANS FOR PROSPERITY,,,,4201 WILSON BLVD STE 1000,ARLINGTON,VA,22203.0,,-1040.38,,,,,,Canvassing,,,,,,,,,,,PM,,,,3.0,JOHN SOUTH (HD-28),DOORKNOCKING,4/16/26-4/25/26,DOORKNOCKING,N,,,,,,,,JOHN SOUTH,HOUSE DISTRICT 28,REP,STATE REPRESENTATIVE DISTRICT 28
AMERICANS FOR PROSPERITY - MONTANA,expenditure,03/26/2026 to 04/25/2026,C4,2026-04-16 00:00:00,AMERICANS FOR PROSPERITY,,,,4201 WILSON BLVD STE 1000,ARLINGTON,VA,22203.0,,-2774.36,,,,,,Canvassing,,,,,,,,,,,PM,,,,3.0,MARY HORMAN (HD-55),DOORKNOCKING,4/16/26-4/25/26,DOORKNOCKING,N,,,,,,,,MARY HORMAN,HOUSE DISTRICT 55,REP,STATE REPRESENTATIVE DISTRICT 55
AMERICANS FOR PROSPERITY - MONTANA,expenditure,03/26/2026 to 04/25/2026,C4,2026-04-16 00:00:00,AMERICANS FOR PROSPERITY,,,,4201 WILSON BLVD STE 1000,ARLINGTON,VA,22203.0,,-1733.97,,,,,,Canvassing,,,,,,,,,,,PM,,,,3.0,FINLEY WARDEN (HD-13),DOORKNOCKING,4/16/26-4/25/26,DOORKNOCKING,N,,,,,,,,FINLEY WARDEN,HOUSE DISTRICT 13,REP,STATE REPRESENTATIVE DISTRICT 13
AMERICANS FOR PROSPERITY - MONTANA,expenditure,03/26/2026 to 04/25/2026,C4,2026-04-16 00:00:00,AMERICANS FOR PROSPERITY,,,,4201 WILSON BLVD STE 1000,ARLINGTON,VA,22203.0,,-1387.18,,,,,,Canvassing,,,,,,,,,,,PM,,,,3.0,STEVE LAPRAIM (SD-42),DOORKNOCKING,4/16/26-4/25/26,DOORKNOCKING,N,,,,,,,,STEPHEN LAPRAIM,SENATE DISTRICT 42,REP,STATE SENATOR DISTRICT 42
AMERICANS FOR PROSPERITY - MONTANA,expenditure,03/26/2026 to 04/25/2026,C4,2026-04-16 00:00:00,AMERICANS FOR PROSPERITY,,,,4201 WILSON BLVD STE 1000,ARLINGTON,VA,22203.0,,-1387.18,,,,,,Canvassing,,,,,,,,,,,PM,,,,3.0,TREVOR FUNSETH (HD-21),DOORKNOCKING,4/16/26-4/25/26,DOORKNOCKING,N,,,,,,,,TREVOR P FUNSETH,HOUSE DISTRICT 21,REP,STATE REPRESENTATIVE DISTRICT 21
AMERICANS FOR PROSPERITY - MONTANA,expenditure,03/26/2026 to 04/25/2026,C4,2026-04-16 00:00:00,AMERICANS FOR PROSPERITY,,,,4201 WILSON BLVD STE 1000,ARLINGTON,VA,22203.0,,-2774.36,,,,,,Canvassing,,,,,,,,,,,PM,,,,3.0,CALEB HINKLE (SD-34),DOORKNOCKING,4/16/26-4/25/26,DOORKNOCKING,N,,,,,,,,CALEB HINKLE,SENATE DISTRICT 34,REP,STATE SENATOR DISTRICT 34
AMERICANS FOR PROSPERITY - MONTANA,expenditure,03/26/2026 to 04/25/2026,C4,2026-04-16 00:00:00,AMERICANS FOR PROSPERITY,,,,4201 WILSON BLVD STE 1000,ARLINGTON,VA,22203.0,,-1387.18,,,,,,Canvassing,,,,,,,,,,,PM,,,,3.0,TREVOR WALTER (HD-69),DOORKNOCKING,4/16/26-4/25/26,DOORKNOCKING,N,,,,,,,,TREVOR WALTER,HOUSE DISTRICT 69,REP,STATE REPRESENTATIVE DISTRICT 69
AMERICANS FOR PROSPERITY - MONTANA,expenditure,03/26/2026 to 04/25/2026,C4,2026-04-16 00:00:00,AMERICANS FOR PROSPERITY,,,,4201 WILSON BLVD STE 1000,ARLINGTON,VA,22203.0,,-1387.18,,,,,,Canvassing,,,,,,,,,,,PM,,,,3.0,TRISH SCHREIBER (HD-76),DOORKNOCKING,4/16/26-4/25/26,DOORKNOCKING,N,,,,,,,,TRISH SCHREIBER,HOUSE DISTRICT 76,REP,STATE REPRESENTATIVE DISTRICT 76
AMERICANS FOR PROSPERITY - MONTANA,expenditure,03/26/2026 to 04/25/2026,C4,2026-04-16 00:00:00,AMERICANS FOR PROSPERITY,,,,4201 WILSON BLVD STE 1000,ARLINGTON,VA,22203.0,,-2774.36,,,,,,Canvassing,,,,,,,,,,,PM,,,,3.0,KATHY LOVE (SD-43),DOORKNOCKING,4/16/26-4/25/26,DOORKNOCKING,N,,,,,,,,KATHY LOVE,SENATE DISTRICT 43,REP,STATE SENATOR DISTRICT 43
AMERICANS FOR PROSPERITY - MONTANA,expenditure,03/26/2026 to 04/25/2026,C4,2026-04-16 00:00:00,AMERICANS FOR PROSPERITY,,,,4201 WILSON BLVD STE 1000,ARLINGTON,VA,22203.0,,-4855.12,,,,,,Canvassing,,,,,,,,,,,PM,,,,3.0,ZACK WIRTH (SD-9),DOORKNOCKING,4/16/26-4/25/26,DOORKNOCKING,N,,,,,,,,ZACK WIRTH,SENATE DISTRICT 9,REP,STATE SENATOR DISTRICT 9
AMERICANS FOR PROSPERITY - MONTANA,expenditure,03/26/2026 to 04/25/2026,C4,2026-04-01 00:00:00,AMERICANS FOR PROSPERITY,,,,4201 WILSON BLVD STE 1000,ARLINGTON,VA,22203.0,,-1040.38,,,,,,Canvassing,,,,,,,,,,,PM,,,,3.0,KIM DAILEY (HD-85),DOORKNOCKING,4/1/26-4/15/26,DOORKNOCKING,N,,,,,,,,KIM DAILEY,HOUSE DISTRICT 85,REP,STATE REPRESENTATIVE DISTRICT 85
AMERICANS FOR PROSPERITY - MONTANA,expenditure,03/26/2026 to 04/25/2026,C4,2026-04-01 00:00:00,AMERICANS FOR PROSPERITY,,,,4201 WILSON BLVD STE 1000,ARLINGTON,VA,22203.0,,-1040.38,,,,,,Canvassing,,,,,,,,,,,PM,,,,3.0,TONY ROSALES (HD-20),DOORKNOCKING,4/1/26-4/15/26,DOORKNOCKING,N,,,,,,,,TONY ROSALES,HOUSE DISTRICT 20,REP,STATE REPRESENTATIVE DISTRICT 20
AMERICANS FOR PROSPERITY - MONTANA,expenditure,03/26/2026 to 04/25/2026,C4,2026-04-01 00:00:00,AMERICANS FOR PROSPERITY,,,,4201 WILSON BLVD STE 1000,ARLINGTON,VA,22203.0,,-520.19,,,,,,Canvassing,,,,,,,,,,,PM,,,,3.0,LINDA HARMON (HD-29),DOORKNOCKING,4/1/26-4/15/26,DOORKNOCKING,N,,,,,,,,LINDA HARMON,HOUSE DISTRICT 29,REP,STATE REPRESENTATIVE DISTRICT 29
AMERICANS FOR PROSPERITY - MONTANA,expenditure,03/26/2026 to 04/25/2026,C4,2026-04-01 00:00:00,AMERICANS FOR PROSPERITY,,,,4201 WILSON BLVD STE 1000,ARLINGTON,VA,22203.0,,-1040.38,,,,,,Canvassing,,,,,,,,,,,PM,,,,3.0,JOHN SOUTH (HD-28),DOORKNOCKING,4/1/26-4/15/26,DOORKNOCKING,N,,,,,,,,JOHN SOUTH,HOUSE DISTRICT 28,REP,STATE REPRESENTATIVE DISTRICT 28
AMERICANS FOR PROSPERITY - MONTANA,expenditure,03/26/2026 to 04/25/2026,C4,2026-04-01 00:00:00,AMERICANS FOR PROSPERITY,,,,4201 WILSON BLVD STE 1000,ARLINGTON,VA,22203.0,,-520.19,,,,,,Canvassing,,,,,,,,,,,PM,,,,3.0,MARY HORMAN (HD-55),DOORKNOCKING,4/1/26-4/15/26,DOORKNOCKING,N,,,,,,,,MARY HORMAN,HOUSE DISTRICT 55,REP,STATE REPRESENTATIVE DISTRICT 55
AMERICANS FOR PROSPERITY - MONTANA,expenditure,03/26/2026 to 04/25/2026,C4,2026-04-01 00:00:00,AMERICANS FOR PROSPERITY,,,,4201 WILSON BLVD STE 1000,ARLINGTON,VA,22203.0,,-1040.38,,,,,,Canvassing,,,,,,,,,,,PM,,,,3.0,FINLEY WARDEN (HD-13),DOORKNOCKING,4/1/26-4/15/26,DOORKNOCKING,N,,,,,,,,FINLEY WARDEN,HOUSE DISTRICT 13,REP,STATE REPRESENTATIVE DISTRICT 13
AMERICANS FOR PROSPERITY - MONTANA,expenditure,03/26/2026 to 04/25/2026,C4,2026-04-01 00:00:00,AMERICANS FOR PROSPERITY,,,,4201 WILSON BLVD S,ARLINGTON,VA,22203.0,,-2080.77,,,,,,Canvassing,,,,,,,,,,,PM,,,,3.0,STEVE LAPRAIM (SD-42),DOORKNOCKING,4/1/26-4/15/26,DOORKNOCKING,N,,,,,,,,STEPHEN LAPRAIM,SENATE DISTRICT 42,REP,STATE SENATOR DISTRICT 42
AMERICANS FOR PROSPERITY - MONTANA,expenditure,03/26/2026 to 04/25/2026,C4,2026-04-01 00:00:00,AMERICANS FOR PROSPERITY,,,,"4201 WILSON BLVD, STE 1000",ARLINGTON,VA,22203.0,,-2080.77,,,,,,Canvassing,,,,,,,,,,,PM,,,,3.0,TREVOR FUNSETH (HD-21),DOORKNOCKING,4/1/26-4/15/26,DOORKNOCKING,N,,,,,,,,TREVOR P FUNSETH,HOUSE DISTRICT 21,REP,STATE REPRESENTATIVE DISTRICT 21
AMERICANS FOR PROSPERITY - MONTANA,expenditure,03/26/2026 to 04/25/2026,C4,2026-04-01 00:00:00,AMERICANS FOR PROSPERITY,,,,"4201 WILSON BLVD, STE 1000",ARLINGTON,VA,22203.0,,-2080.77,,,,,,Canvassing,,,,,,,,,,,PM,,,,3.0,CALEB HINKLE (SD-34),DOORKNOCKING,4/1/26-4/15/26,DOORKNOCKING,N,,,,,,,,CALEB HINKLE,SENATE DISTRICT 34,REP,STATE SENATOR DISTRICT 34
AMERICANS FOR PROSPERITY - MONTANA,expenditure,03/26/2026 to 04/25/2026,C4,2026-04-01 00:00:00,AMERICANS FOR PROSPERITY,,,,"4201 WILSON BLVD, STE 1000",ARLINGTON,VA,22203.0,,-1040.38,,,,,,Canvassing,,,,,,,,,,,PM,,,,3.0,TREVOR WALTER (HD-69),DOORKNOCKING,4/1/26-4/15/26,DOORKNOCKING,N,,,,,,,,TREVOR WALTER,HOUSE DISTRICT 69,REP,STATE REPRESENTATIVE DISTRICT 69
AMERICANS FOR PROSPERITY - MONTANA,expenditure,03/26/2026 to 04/25/2026,C4,2026-04-01 00:00:00,AMERICANS FOR PROSPERITY,,,,"4201 WILSON BLVD, STE 1000",ARLINGTON,VA,22203.0,,-1040.38,,,,,,Canvassing,,,,,,,,,,,PM,,,,3.0,TRISH SCHREIBER (HD-76),DOORKNOCKING,4/1/26-4/15/26,DOORKNOCKING,N,,,,,,,,TRISH SCHREIBER,HOUSE DISTRICT 76,REP,STATE REPRESENTATIVE DISTRICT 76
AMERICANS FOR PROSPERITY - MONTANA,expenditure,03/26/2026 to 04/25/2026,C4,2026-04-01 00:00:00,AMERICANS FOR PROSPERITY,,,,"4201 WILSON BLVD, STE 1000",ARLINGTON,VA,22203.0,,-4161.54,,,,,,Canvassing,,,,,,,,,,,PM,,,,3.0,KATHY LOVE (SD-43),DOORKNOCKING,4/1/26-4/15/26,DOORKNOCKING,N,,,,,,,,KATHY LOVE,SENATE DISTRICT 43,REP,STATE SENATOR DISTRICT 43
AMERICANS FOR PROSPERITY - MONTANA,expenditure,03/26/2026 to 04/25/2026,C4,2026-04-01 00:00:00,AMERICANS FOR PROSPERITY,,,,"4201 WILSON BLVD, STE 1000",ARLINGTON,VA,22203.0,,-5201.92,,,,,,Canvassing,,,,,,,,,,,PM,,,,3.0,ZACK WIRTH (SD-9),DOORKNOCKING,4/1/26-4/15/26,DOORKNOCKING,N,,,,,,,,ZACK WIRTH,SENATE DISTRICT 9,REP,STATE SENATOR DISTRICT 9
AMERICANS FOR PROSPERITY - MONTANA,expenditure,03/26/2026 to 04/25/2026,C4,2026-03-26 00:00:00,AMERICANS FOR PROSPERITY,,,,4201 WILSON BLVD STE 1000,ARLINGTON,VA,22203.0,,-250.0,,,,,,Canvassing,,,,,,,,,,,PM,,,,3.0,LINDA HARMON (HD-29),PHONE CALLS,3/26/26-4/25/26,PHONE CALLS,N,,,,,,,,LINDA HARMON,HOUSE DISTRICT 29,REP,STATE REPRESENTATIVE DISTRICT 29
AMERICANS FOR PROSPERITY - MONTANA,expenditure,03/26/2026 to 04/25/2026,C4,2026-04-07 00:00:00,FCG MAIL LLC,,,,558 E CASTLE PINES PKWY STE B-4 BOX 333,CASTLE PINES,CO,80108.0,,-2202.57,,,,,,Mailer,,,,,,,,,,,PM,,,,3.0,STEVE LAPRAIM (SD-42),,"4,031","MAILER DESIGN, PRINTING, AND PRODUCTION",N,,,,,,,,STEPHEN LAPRAIM,SENATE DISTRICT 42,REP,STATE SENATOR DISTRICT 42
AMERICANS FOR PROSPERITY - MONTANA,expenditure,03/26/2026 to 04/25/2026,C4,2026-04-07 00:00:00,FCG MAIL LLC,,,,558 E CASTLE PINES PKWY STE B-4 BOX 333,CASTLE PINES,CO,80108.0,,-1763.96,,,,,,Mailer ,,,,,,,,,,,PM,,,,3.0,LINDA HARMON (HD-29),,"2,515","MAILER DESIGN, PRINTING, AND PRODUCTION",N,,,,,,,,LINDA HARMON,HOUSE DISTRICT 29,REP,STATE REPRESENTATIVE DISTRICT 29
AMERICANS FOR PROSPERITY - MONTANA,expenditure,03/26/2026 to 04/25/2026,C4,2026-04-07 00:00:00,FCG MAIL LLC,,,,558 E CASTLE PINES PKWY STE B-4 BOX 333,CASTLE PINES,CO,80108.0,,-1650.2,,,,,,Mailer,,,,,,,,,,,PM,,,,3.0,MARY HORMAN (HD-55),,"1,973","MAILER DESIGN, PRINTING, AND PRODUCTION",N,,,,,,,,MARY HORMAN,HOUSE DISTRICT 55,REP,STATE REPRESENTATIVE DISTRICT 55
AMERICANS FOR PROSPERITY - MONTANA,expenditure,03/26/2026 to 04/25/2026,C4,2026-04-07 00:00:00,FCG MAIL LLC,,,,558 E CASTLE PINES PKWY STE B-4 BOX 333,CASTLE PINES,CO,80108.0,,-1350.09,,,,,,Mailer,,,,,,,,,,,PM,,,,3.0,TONY ROSALES (HD-20),,"1,355","MAILER DESIGN, PRINTING, AND PRODUCTION",N,,,,,,,,TONY ROSALES,HOUSE DISTRICT 20,REP,STATE REPRESENTATIVE DISTRICT 20
AMERICANS FOR PROSPERITY - MONTANA,expenditure,03/26/2026 to 04/25/2026,C4,2026-04-07 00:00:00,FCG MAIL LLC,,,,558 E CASTLE PINES PKWY STE B-4 BOX 333,CASTLE PINES,CO,80108.0,,-1510.84,,,,,,Mailer,,,,,,,,,,,PM,,,,3.0,TREVOR FUNSETH (HD-21),,"1,672","MAILER DESIGN, PRINTING, AND PRODUCTION",N,,,,,,,,TREVOR P FUNSETH,HOUSE DISTRICT 21,REP,STATE REPRESENTATIVE DISTRICT 21
AMERICANS FOR PROSPERITY - MONTANA,expenditure,03/26/2026 to 04/25/2026,C4,2026-04-07 00:00:00,FCG MAIL LLC,,,,558 E CASTLE PINES PKWY STE B-4 BOX 333,CASTLE PINES,CO,80108.0,,-1868.39,,,,,,Mailer,,,,,,,,,,,PM,,,,3.0,TREVOR WALTER (HD-69),,"3,035","MAILER DESIGN, PRINTING, AND PRODUCTION",N,,,,,,,,TREVOR WALTER,HOUSE DISTRICT 69,REP,STATE REPRESENTATIVE DISTRICT 69
AMERICANS FOR PROSPERITY - MONTANA,expenditure,03/26/2026 to 04/25/2026,C4,2026-04-07 00:00:00,FCG MAIL LLC,,,,558 E CASTLE PINES PKWY STE B-4 BOX 333,CASTLE PINES,CO,80108.0,,-1802.52,,,,,,Mailer,,,,,,,,,,,PM,,,,3.0,JOHN SOUTH (HD-28),,"2,683","MAILER DESIGN, PRINTING, AND PRODUCTION",N,,,,,,,,JOHN SOUTH,HOUSE DISTRICT 28,REP,STATE REPRESENTATIVE DISTRICT 28
AMERICANS FOR PROSPERITY - MONTANA,expenditure,03/26/2026 to 04/25/2026,C4,2026-04-07 00:00:00,FCG MAIL LLC,,,,558 E CASTLE PINES PKWY STE B-4 BOX 333,CASTLE PINES,CO,80108.0,,-1662.7,,,,,,Mailer,,,,,,,,,,,PM,,,,3.0,FINLEY WARDEN (HD-13),,"2,002","MAILER DESIGN, PRINTING, AND PRODUCTION",N,,,,,,,,FINLEY WARDEN,HOUSE DISTRICT 13,REP,STATE REPRESENTATIVE DISTRICT 13
AMERICANS FOR PROSPERITY - MONTANA,expenditure,03/26/2026 to 04/25/2026,C4,2026-04-07 00:00:00,FCG MAIL LLC,,,,558 E CASTLE PINES PKWY STE B-4 BOX 333,CASTLE PINES,CO,80108.0,,-1764.72,,,,,,Mailer,,,,,,,,,,,PM,,,,3.0,TRISH SCHREIBER (HD-76),,"2,518","MAILER DESIGN, PRINTING, AND PRODUCTION",N,,,,,,,,TRISH SCHREIBER,HOUSE DISTRICT 76,REP,STATE REPRESENTATIVE DISTRICT 76
AMERICANS FOR PROSPERITY - MONTANA,expenditure,03/26/2026 to 04/25/2026,C4,2026-04-07 00:00:00,FCG MAIL LLC,,,,558 E CASTLE PINES PKWY STE B-4 BOX 333,CASTLE PINES,CO,80108.0,,-2566.11,,,,,,Mailer,,,,,,,,,,,PM,,,,3.0,ZACK WIRTH (SD-9),,"5,513","MAILER DESIGN, PRINTING, AND PRODUCTION",N,,,,,,,,ZACK WIRTH,SENATE DISTRICT 9,REP,STATE SENATOR DISTRICT 9
AMERICANS FOR PROSPERITY - MONTANA,expenditure,03/26/2026 to 04/25/2026,C4,2026-04-07 00:00:00,FCG MAIL LLC,,,,558 E CASTLE PINES PKWY STE B-4 BOX 333,CASTLE PINES,CO,80108.0,,-2522.34,,,,,,Mailer,,,,,,,,,,,PM,,,,3.0,KATHY LOVE (SD-9),,"5,369","MAILER DESIGN, PRINTING, AND PRODUCTION",N,,,,,,,,KATHY LOVE,SENATE DISTRICT 43,REP,STATE SENATOR DISTRICT 43
AMERICANS FOR PROSPERITY - MONTANA,expenditure,03/26/2026 to 04/25/2026,C4,2026-04-07 00:00:00,FCG MAIL LLC,,,,558 E CASTLE PINES PKWY STE B-4 BOX 333,CASTLE PINES,CO,80108.0,,-2032.77,,,,,,Mailer,,,,,,,,,,,PM,,,,3.0,CALEB HINKLE (sd-34),,"3,635","MAILER DESIGN, PRINTING, AND PRODUCTION",N,,,,,,,,CALEB HINKLE,SENATE DISTRICT 34,REP,STATE SENATOR DISTRICT 34
AMERICANS FOR PROSPERITY - MONTANA,expenditure,03/26/2026 to 04/25/2026,C4,2026-03-30 00:00:00,FCG MAIL LLC,,,,558 E CASTLE PINES PKWY STE B-4 BOX 333,CASTLE PINES,CO,80108.0,,-2306.63,,,,,,Mailer,,,,,,,,,,,PM,,,,3.0,STEVE LAPRAIM (SD-42),,"4,031","MAILER DESIGN, PRINTING, AND PRODUCTION",N,,,,,,,,STEPHEN LAPRAIM,SENATE DISTRICT 42,REP,STATE SENATOR DISTRICT 42
AMERICANS FOR PROSPERITY - MONTANA,expenditure,03/26/2026 to 04/25/2026,C4,2026-03-30 00:00:00,FCG MAIL LLC,,,,558 E CASTLE PINES PKWY STE B-4 BOX 333,CASTLE PINES,CO,80108.0,,-1554.0,,,,,,Mailer,,,,,,,,,,,PM,,,,3.0,TREVOR FUNSETH (HD-21),,"1,672","MAILER DESIGN, PRINTING, AND PRODUCTION",N,,,,,,,,TREVOR P FUNSETH,HOUSE DISTRICT 21,REP,STATE REPRESENTATIVE DISTRICT 21
AMERICANS FOR PROSPERITY - MONTANA,expenditure,03/26/2026 to 04/25/2026,C4,2026-03-30 00:00:00,FCG MAIL LLC,,,,558 E CASTLE PINES PKWY STE B-4 BOX 333,CASTLE PINES,CO,80108.0,,-1701.13,,,,,,Mailer,,,,,,,,,,,PM,,,,3.0,MARY HORMAN (HD-55),,"1,973","MAILER DESIGN, PRINTING, AND PRODUCTION",N,,,,,,,,MARY HORMAN,HOUSE DISTRICT 55,REP,STATE REPRESENTATIVE DISTRICT 55
AMERICANS FOR PROSPERITY - MONTANA,expenditure,03/26/2026 to 04/25/2026,C4,2026-03-30 00:00:00,FCG MAIL LLC,,,,558 E CASTLE PINES PKWY STE B-4 BOX 333,CASTLE PINES,CO,80108.0,,-2708.42,,,,,,Mailer,,,,,,,,,,,PM,,,,3.0,ZACK WIRTH (SD-9),,"5,513","MAILER DESIGN, PRINTING, AND PRODUCTION",N,,,,,,,,ZACK WIRTH,SENATE DISTRICT 9,REP,STATE SENATOR DISTRICT 9
AMERICANS FOR PROSPERITY - MONTANA,expenditure,03/26/2026 to 04/25/2026,C4,2026-03-30 00:00:00,FCG MAIL LLC,,,,558 E CASTLE PINES PKWY STE B-4 BOX 333,CASTLE PINES,CO,80108.0,,-2660.93,,,,,,Mailer,,,,,,,,,,,PM,,,,3.0,KATHY LOVE (SD-43),,"5,369","MAILER DESIGN, PRINTING, AND PRODUCTION",N,,,,,,,,KATHY LOVE,SENATE DISTRICT 43,REP,STATE SENATOR DISTRICT 43
AMERICANS FOR PROSPERITY - MONTANA,expenditure,03/26/2026 to 04/25/2026,C4,2026-03-30 00:00:00,FCG MAIL LLC,,,,558 E CASTLE PINES PKWY STE B-4 BOX 333,CASTLE PINES,CO,80108.0,,-2126.6,,,,,,Mailer,,,,,,,,,,,PM,,,,3.0,CALEB HINKLE (SD-34),,"3,635","MAILER DESIGN, PRINTING, AND PRODUCTION",N,,,,,,,,CALEB HINKLE,SENATE DISTRICT 34,REP,STATE SENATOR DISTRICT 34
AMERICANS FOR PROSPERITY - MONTANA,expenditure,03/26/2026 to 04/25/2026,C4,2026-04-15 00:00:00,FCG MAIL LLC,,,,558 E CASTLE PINES PKWY STE B-4 BOX 333,CASTLE PINES,CO,80108.0,,-1780.91,,,,,,DOORHANGER,,,,,,,,,,,PM,,,,3.0,TONY ROSALES (HD-20),,"3,000","DOORHANGER DESIGN, PRINTING, AND PRODUCTION",N,,,,,,,,TONY ROSALES,HOUSE DISTRICT 20,REP,STATE REPRESENTATIVE DISTRICT 20
AMERICANS FOR PROSPERITY - MONTANA,expenditure,03/26/2026 to 04/25/2026,C4,2026-04-15 00:00:00,FCG MAIL LLC,,,,558 E CASTLE PINES PKWY STE B-4 BOX 333,CASTLE PINES,CO,80108.0,,-1780.91,,,,,,DOORHANGER,,,,,,,,,,,PM,,,,3.0,MARY HORMAN (HD-55),,"3,000","DOORHANGER DESIGN, PRINTING, AND PRODUCTION",N,,,,,,,,MARY HORMAN,HOUSE DISTRICT 55,REP,STATE REPRESENTATIVE DISTRICT 55
AMERICANS FOR PROSPERITY - MONTANA,expenditure,03/26/2026 to 04/25/2026,C4,2026-04-15 00:00:00,FCG MAIL LLC,,,,558 E CASTLE PINES PKWY STE B-4 BOX 333,CASTLE PINES,CO,80108.0,,-1780.91,,,,,,DOORHANGER,,,,,,,,,,,PM,,,,3.0,JOHN SOUTH (HD-28),,"3,000","DOORHANGER DESIGN, PRINTING, AND PRODUCTION",N,,,,,,,,JOHN SOUTH,HOUSE DISTRICT 28,REP,STATE REPRESENTATIVE DISTRICT 28
AMERICANS FOR PROSPERITY - MONTANA,expenditure,03/26/2026 to 04/25/2026,C4,2026-04-15 00:00:00,FCG MAIL LLC,,,,558 E CASTLE PINES PKWY STE B-4 BOX 333,CASTLE PINES,CO,80108.0,,-1780.91,,,,,,DOORHANGER,,,,,,,,,,,PM,,,,3.0,STEVE LAPRAIM (SD-42),,"3,000","DOORHANGER DESIGN, PRINTING, AND PRODUCTION",N,,,,,,,,STEPHEN LAPRAIM,SENATE DISTRICT 42,REP,STATE SENATOR DISTRICT 42
AMERICANS FOR PROSPERITY - MONTANA,expenditure,03/26/2026 to 04/25/2026,C4,2026-04-15 00:00:00,FCG MAIL LLC,,,,558 E CASTLE PINES PKWY STE B-4 BOX 333,CASTLE PINES,CO,80108.0,,-1780.91,,,,,,DOORHANGER,,,,,,,,,,,PM,,,,3.0,TREVOR FUNSETH (HD-21),,"3,000","DOORHANGER DESIGN, PRINTING, AND PRODUCTION",N,,,,,,,,TREVOR P FUNSETH,HOUSE DISTRICT 21,REP,STATE REPRESENTATIVE DISTRICT 21
AMERICANS FOR PROSPERITY - MONTANA,expenditure,03/26/2026 to 04/25/2026,C4,2026-04-15 00:00:00,FCG MAIL LLC,,,,558 E CASTLE PINES PKWY STE B-4 BOX 333,CASTLE PINES,CO,80108.0,,-1780.91,,,,,,DOORHANGER,,,,,,,,,,,PM,,,,3.0,ZACK WIRTH (SD-9),,"3,000","DOORHANGER DESIGN, PRINTING, AND PRODUCTION",N,,,,,,,,ZACK WIRTH,SENATE DISTRICT 9,REP,STATE SENATOR DISTRICT 9
AMERICANS FOR PROSPERITY - MONTANA,expenditure,03/26/2026 to 04/25/2026,C4,2026-04-15 00:00:00,FCG MAIL LLC,,,,558 E CASTLE PINES PKWY STE B-4 BOX 333,CASTLE PINES,CO,80108.0,,-1780.91,,,,,,DOORHANGER,,,,,,,,,,,PM,,,,3.0,FINLEY WARDEN (HD-13),,"3,000","DOORHANGER DESIGN, PRINTING, AND PRODUCTION",N,,,,,,,,FINLEY WARDEN,HOUSE DISTRICT 13,REP,STATE REPRESENTATIVE DISTRICT 13
AMERICANS FOR PROSPERITY - MONTANA,expenditure,03/26/2026 to 04/25/2026,C4,2026-04-15 00:00:00,FCG MAIL LLC,,,,558 E CASTLE PINES PKWY STE B-4 BOX 333,CASTLE PINES,CO,80108.0,,-1780.91,,,,,,DOORHANGER,,,,,,,,,,,PM,,,,3.0,KIM DAILEY (HD-85),,"3,000","DOORHANGER DESIGN, PRINTING, AND PRODUCTION",N,,,,,,,,KIM DAILEY,HOUSE DISTRICT 85,REP,STATE REPRESENTATIVE DISTRICT 85
AMERICANS FOR PROSPERITY - MONTANA,expenditure,03/26/2026 to 04/25/2026,C4,2026-04-15 00:00:00,FCG MAIL LLC,,,,558 E CASTLE PINES PKWY STE B-4 BOX 333,CASTLE PINES,CO,80108.0,,-1780.91,,,,,,DOORHANGER,,,,,,,,,,,PM,,,,3.0,KATHY LOVE (SD-43),,"3,000","DOORHANGER DESIGN, PRINTING, AND PRODUCTION",N,,,,,,,,KATHY LOVE,SENATE DISTRICT 43,REP,STATE SENATOR DISTRICT 43
AMERICANS FOR PROSPERITY - MONTANA,expenditure,03/26/2026 to 04/25/2026,C4,2026-04-15 00:00:00,FCG MAIL LLC,,,,558 E CASTLE PINES PKWY STE B-4 BOX 333,CASTLE PINES,CO,80108.0,,-2053.75,,,,,,DOORHANGER,,,,,,,,,,,PM,,,,3.0,TRISH SCHREIBER (HD-76),,"4,000","DOORHANGER DESIGN, PRINTING, AND PRODUCTION",N,,,,,,,,TRISH SCHREIBER,HOUSE DISTRICT 76,REP,STATE REPRESENTATIVE DISTRICT 76
AMERICANS FOR PROSPERITY - MONTANA,expenditure,03/26/2026 to 04/25/2026,C4,2026-04-14 00:00:00,FCG MAIL LLC,,,,558 E CASTLE PINES PKWY STE B-4 BOX 333,CASTLE PINES,CO,80108.0,,-1981.2,,,,,,DOORHANGER,,,,,,,,,,,PM,,,,3.0,CALEB HINKLE (SD-34),,"4,000","DOORHANGER DESIGN, PRINTING, AND PRODUCTION",N,,,,,,,,CALEB HINKLE,SENATE DISTRICT 34,REP,STATE SENATOR DISTRICT 34
AMERICANS FOR PROSPERITY - MONTANA,expenditure,03/26/2026 to 04/25/2026,C4,2026-03-27 00:00:00,FCG MAIL LLC,,,,558 E CASTLE PINES PKWY STE B-4 BOX 333,CASTLE PINES,CO,80108.0,,-2774.5,,,,,,DOORHANGER,,,,,,,,,,,PM,,,,3.0,CALEB HINKLE (SD-34),,"5,000","DOORHANGER DESIGN, PRINTING, AND PRODUCTION",N,,,,,,,,CALEB HINKLE,SENATE DISTRICT 34,REP,STATE SENATOR DISTRICT 34
AMERICANS FOR PROSPERITY - MONTANA,expenditure,03/26/2026 to 04/25/2026,C4,2026-04-01 00:00:00,FCG MAIL LLC,,,,558 E CASTLE PINES PKWY STE B-4 BOX 333,CASTLE PINES,CO,80108.0,,-2053.75,,,,,,DOORHANGER,,,,,,,,,,,PM,,,,3.0,TREVOR WALTER (HD-69),,"4,000","DOORHANGER DESIGN, PRINTING, AND PRODUCTION",N,,,,,,,,TREVOR WALTER,HOUSE DISTRICT 69,REP,STATE REPRESENTATIVE DISTRICT 69
AMERICANS FOR PROSPERITY - MONTANA,expenditure,02/06/2026 to 03/25/2026,C4,2026-03-12 00:00:00,UNITED STATES POSTAL SERVICE,,,,470 L'ENFANT PLAZA SW STE 604,WASHINGTON,DC,20024.0,,-628.64,,,,,,Mailer,,,,,,,,,,,PM,,,,3.0,STEVE LAPRAIM (SD-42),,"4,031",MAILER POSTAGE,N,,,,,,,,STEPHEN LAPRAIM,SENATE DISTRICT 42,REP,STATE SENATOR DISTRICT 42
AMERICANS FOR PROSPERITY - MONTANA,expenditure,02/06/2026 to 03/25/2026,C4,2026-03-12 00:00:00,FCG MAIL LLC,,,,558 E CASTLE PINES PKWY STE B-4 BOX 333,CASTLE PINES,CO,80108.0,,-2192.82,,,,,,Mailer,,,,,,,,,,,PM,,,,3.0,STEVE LAPRAIM (SD-42),,"4,031","MAILER DESIGN, PRINTING & PRODUCTION",N,,,,,,,,STEPHEN LAPRAIM,SENATE DISTRICT 42,REP,STATE SENATOR DISTRICT 42
AMERICANS FOR PROSPERITY - MONTANA,expenditure,02/06/2026 to 03/25/2026,C4,2026-03-16 00:00:00,AMERICANS FOR PROSPERITY,,,,4201 WILSON BLVD,ARLINGTON,VA,22203.0,,-162.56,,,,,,Canvassing,,,,,,,,,,,PM,,,,3.0,STEVE LAPRAIM (SD-42),DOORKNOCKING,3/16/26-3/25/26,DOORKNOCKING,N,,,,,,,,STEPHEN LAPRAIM,SENATE DISTRICT 42,REP,STATE SENATOR DISTRICT 42
AMERICANS FOR PROSPERITY - MONTANA,expenditure,02/06/2026 to 03/25/2026,C4,2026-03-01 00:00:00,AMERICANS FOR PROSPERITY,,,,4201 WILSON BLVD STE 1000,ARLINGTON,VA,22203.0,,-260.09,,,,,,Canvassing,,,,,,,,,,,PM,,,,3.0,STEVE LAPRAIM (SD-42),DOORKNOCKING,3/1/26-3/15/26,DOORKNOCKING,N,,,,,,,,STEPHEN LAPRAIM,SENATE DISTRICT 42,REP,STATE SENATOR DISTRICT 42
AMERICANS FOR PROSPERITY - MONTANA,expenditure,02/06/2026 to 03/25/2026,C4,2026-02-16 00:00:00,Canvass America,,,,45 N HILL DR STE 100,WARRENTON,VA,20186.0,,-820.0,,,,,,Canvassing,,,,,,,,,,,PM,,,,3.0,STEVE LAPRAIM (SD-42),DOORKNOCKING,2/16/26-3/25/26,DOORKNOCKING,N,,,,,,,,STEPHEN LAPRAIM,SENATE DISTRICT 42,REP,STATE SENATOR DISTRICT 42
AMERICANS FOR PROSPERITY - MONTANA,expenditure,02/06/2026 to 03/25/2026,C4,2026-02-16 00:00:00,AMERICANS FOR PROSPERITY,,,,4201 WILSON BLVD STE 1000,ARLINGTON,VA,22203.0,,-565.76,,,,,,Canvassing,,,,,,,,,,,PM,,,,3.0,STEVE LAPRAIM (SD-42),DOORKNOCKING,2/16/26-2/28/26,DOORKNOCKING,N,,,,,,,,STEPHEN LAPRAIM,SENATE DISTRICT 42,REP,STATE SENATOR DISTRICT 42
AMERICANS FOR PROSPERITY - MONTANA,expenditure,02/06/2026 to 03/25/2026,C4,2026-02-06 00:00:00,FCG MAIL LLC,,,,558 E CASTLE PINES PKWY STE B-4 BOX 333,CASTLE PINES,CO,80108.0,,-2400.7,,,,,,DOORHANGER,,,,,,,,,,,PM,,,,3.0,TREVOR WALTER (HD-69),,"3,500","DOORHANGER DESIGN, PRINTING & PRODUCTION",N,,,,,,,,TREVOR WALTER,HOUSE DISTRICT 69,REP,STATE REPRESENTATIVE DISTRICT 69
AMERICANS FOR PROSPERITY - MONTANA,expenditure,02/06/2026 to 03/25/2026,C4,2026-03-16 00:00:00,AMERICANS FOR PROSPERITY,,,,4201 WILSON BLVD STE 1000,ARLINGTON,VA,22203.0,,-162.56,,,,,,Canvassing,,,,,,,,,,,PM,,,,3.0,LINDA HARMON (HD-29),DOORKNOCKING,3/16/26-3/25/26,DOORKNOCKING,N,,,,,,,,LINDA HARMON,HOUSE DISTRICT 29,REP,STATE REPRESENTATIVE DISTRICT 29
AMERICANS FOR PROSPERITY - MONTANA,expenditure,02/06/2026 to 03/25/2026,C4,2026-03-01 00:00:00,Canvass America,,,,45 N HILL DR STE 100,WARRENTON,VA,20186.0,,-679.0,,,,,,Canvassing,,,,,,,,,,,PM,,,,3.0,LINDA HARMON (HD-29),DOORKNOCKING,3/1/26-3/25/26,DOORKNOCKING,N,,,,,,,,LINDA HARMON,HOUSE DISTRICT 29,REP,STATE REPRESENTATIVE DISTRICT 29
AMERICANS FOR PROSPERITY - MONTANA,expenditure,02/06/2026 to 03/25/2026,C4,2026-03-01 00:00:00,AMERICANS FOR PROSPERITY,,,,4201 WILSON BLVD,ARLINGTON,VA,22203.0,,-260.09,,,,,,Canvassing,,,,,,,,,,,PM,,,,3.0,LINDA HARMON (HD-29),DOORKNOCKING,3/1/26-3/15/26,DOORKNOCKING,N,,,,,,,,LINDA HARMON,HOUSE DISTRICT 29,REP,STATE REPRESENTATIVE DISTRICT 29
AMERICANS FOR PROSPERITY - MONTANA,expenditure,02/06/2026 to 03/25/2026,C4,2026-03-12 00:00:00,UNITED STATES POSTAL SERVICE,,,,470 L'ENFANT PLAZA SW STE 604,WASHINGTON,DC,20024.0,,-413.79,,,,,,Mailer,,,,,,,,,,,PM,,,,3.0,LINDA HARMON (HD-29),,"2,515",MAILER POSTAGE,N,,,,,,,,LINDA HARMON,HOUSE DISTRICT 29,REP,STATE REPRESENTATIVE DISTRICT 29
AMERICANS FOR PROSPERITY - MONTANA,expenditure,02/06/2026 to 03/25/2026,C4,2026-03-12 00:00:00,FCG MAIL LLC,,,,558 E CASTLE PINES PKWY STE B-4 BOX 333,CASTLE PINES,CO,80108.0,,-1757.88,,,,,,Mailer,,,,,,,,,,,PM,,,,3.0,LINDA HARMON (HD-29),,"2,515","MAILER DESIGN, PRINTING & PRODUCTION",N,,,,,,,,LINDA HARMON,HOUSE DISTRICT 29,REP,STATE REPRESENTATIVE DISTRICT 29
AMERICANS FOR PROSPERITY - MONTANA,expenditure,02/06/2026 to 03/25/2026,C4,2026-03-06 00:00:00,TARGETED VICTORY,,,,2311 WILSON BLVD STE 200,ARLINGTON,VA,22201.0,,-2500.0,,,,,,Digital Advertising,,,,,,,,,,,PM,,,,3.0,LINDA HARMON (HD-29),,3/6/26-6/2/26,DIGITAL AD PRODUCTION,N,,,,,,,,LINDA HARMON,HOUSE DISTRICT 29,REP,STATE REPRESENTATIVE DISTRICT 29
AMERICANS FOR PROSPERITY - MONTANA,expenditure,02/06/2026 to 03/25/2026,C4,2026-03-01 00:00:00,FCG MAIL LLC,,,,558 E CASTLE PINES PKWY STE B-4 BOX 333,CASTLE PINES,CO,80108.0,,-1994.8,,,,,,DOORHANGER,,,,,,,,,,,PM,,,,3.0,LINDA HARMON (HD-29),,"2,000","DOORHANGER DESIGN, PRINTING & PRODUCTION",N,,,,,,,,LINDA HARMON,HOUSE DISTRICT 29,REP,STATE REPRESENTATIVE DISTRICT 29
AMERICANS FOR PROSPERITY - MONTANA,expenditure,02/06/2026 to 03/25/2026,C4,2026-02-27 00:00:00,IN PURSUIT OF,,,,4201 WILSON BLVD STE 900,ARLINGTON,VA,22203.0,,-7450.0,,,,,,Digital Advertising,,,,,,,,,,,PM,,,,3.0,LINDA HARMON (HD-29),"FACEBOOK, INSTAGRAM, CTV & DSP",2/27/26-6/2/26,DIGITAL AD PLACEMENT,N,,,,,,,,LINDA HARMON,HOUSE DISTRICT 29,REP,STATE REPRESENTATIVE DISTRICT 29
AMERICANS FOR PROSPERITY - MONTANA,expenditure,02/06/2026 to 03/25/2026,C4,2026-02-27 00:00:00,TARGETED VICTORY,,,,2311 WILSON BLVD STE 200,ARLINGTON,VA,22201.0,,-750.0,,,,,,Digital Advertising,,,,,,,,,,,PM,,,,3.0,LINDA HARMON (HD-29),,2/27/26-6/2/26,DIGITAL AD PRODUCTION,N,,,,,,,,LINDA HARMON,HOUSE DISTRICT 29,REP,STATE REPRESENTATIVE DISTRICT 29
AMERICANS FOR PROSPERITY - MONTANA,expenditure,02/06/2026 to 03/25/2026,C4,2026-02-08 00:00:00,META PLATFORMS INC,,,,1 META WAY,MENLO PARK,CA,94025.0,,-5.12,,,,,,Digital Advertising,,,,,,,,,,,PM,,,,3.0,LINDA HARMON (HD-29),FACEBOOK,2/8/26-2/19/26,DIGITAL AD PLACEMENT,N,,,,,,,,LINDA HARMON,HOUSE DISTRICT 29,REP,STATE REPRESENTATIVE DISTRICT 29
AMERICANS FOR PROSPERITY - MONTANA,expenditure,02/06/2026 to 03/25/2026,C4,2026-02-08 00:00:00,META PLATFORMS INC,,,,1 META WAY,MENLO PARK,CA,94025.0,,-201.98,,,,,,Digital Advertising,,,,,,,,,,,PM,,,,3.0,KATHY LOVE (SD-43),FACEBOOK,2/8/26-2/19/26,DIGITAL AD PLACEMENT,N,,,,,,,,KATHY LOVE,SENATE DISTRICT 43,REP,STATE SENATOR DISTRICT 43
AMERICANS FOR PROSPERITY - MONTANA,expenditure,02/06/2026 to 03/25/2026,C4,2026-02-06 00:00:00,FCG MAIL LLC,,,,558 E CASTLE PINES PKWY STE B-4 BOX 333,CASTLE PINES,CO,80108.0,,-2804.5,,,,,,DOORHANGER,,,,,,,,,,,PM,,,,3.0,KATHY LOVE (SD-43),,"5,000","DOORHANGER DESIGN, PRINTING & PRODUCTION",N,,,,,,,,KATHY LOVE,SENATE DISTRICT 43,REP,STATE SENATOR DISTRICT 43
AMERICANS FOR PROSPERITY - MONTANA,expenditure,02/06/2026 to 03/25/2026,C4,2026-03-12 00:00:00,UNITED STATES POSTAL SERVICE,,,,470 L'ENFANT PLAZA SW STE 604,WASHINGTON,DC,20024.0,,-841.09,,,,,,Mailer,,,,,,,,,,,PM,,,,3.0,KATHY LOVE (SD-43),,"5,369",MAILER POSTAGE,N,,,,,,,,KATHY LOVE,SENATE DISTRICT 43,REP,STATE SENATOR DISTRICT 43
AMERICANS FOR PROSPERITY - MONTANA,expenditure,02/06/2026 to 03/25/2026,C4,2026-03-12 00:00:00,FCG MAIL LLC,,,,558 E CASTLE PINES PKWY STE B-4 BOX 333,CASTLE PINES,CO,80108.0,,-2509.35,,,,,,Mailer,,,,,,,,,,,PM,,,,3.0,KATHY LOVE (SD-43),,"5,369","MAILER DESIGN, PRINTING & PRODUCTION",N,,,,,,,,KATHY LOVE,SENATE DISTRICT 43,REP,STATE SENATOR DISTRICT 43
AMERICANS FOR PROSPERITY - MONTANA,expenditure,02/06/2026 to 03/25/2026,C4,2026-02-06 00:00:00,AMERICANS FOR PROSPERITY,,,,4201 WILSON BLVD STE 1000,ARLINGTON,VA,22203.0,,-815.76,,,,,,Canvassing,,,,,,,,,,,PM,,,,3.0,KATHY LOVE (SD-43),DOORKNOCKING & PHONE CALLS,2/6/26-2/15/26,DOORKNOCKING & PHONE CALLS,N,,,,,,,,KATHY LOVE,SENATE DISTRICT 43,REP,STATE SENATOR DISTRICT 43
AMERICANS FOR PROSPERITY - MONTANA,expenditure,02/06/2026 to 03/25/2026,C4,2026-02-06 00:00:00,Canvass America,,,,45 N HILL DR STE 100,WARRENTON,VA,20186.0,,-1300.0,,,,,,Canvassing,,,,,,,,,,,PM,,,,3.0,KATHY LOVE (SD-43),DOORKNOCKING,2/6/26-3/25/26,DOORKNOCKING,N,,,,,,,,KATHY LOVE,SENATE DISTRICT 43,REP,STATE SENATOR DISTRICT 43
AMERICANS FOR PROSPERITY - MONTANA,expenditure,02/06/2026 to 03/25/2026,C4,2026-02-06 00:00:00,AMERICANS FOR PROSPERITY,,,,4201 WILSON BLVD STE 1000,ARLINGTON,VA,22203.0,,-815.76,,,,,,Canvassing,,,,,,,,,,,PM,,,,3.0,ZACK WIRTH (SD-09),DOORKNOCKING & PHONE CALLS,2/6/26-2/15/26,DOORKNOCKING & PHONE CALLS,N,,,,,,,,ZACK WIRTH,SENATE DISTRICT 9,REP,STATE SENATOR DISTRICT 9
AMERICANS FOR PROSPERITY - MONTANA,expenditure,02/06/2026 to 03/25/2026,C4,2026-02-06 00:00:00,Canvass America,,,,45 N HILL DR STE 100,WARRENTON,VA,20186.0,,-1300.0,,,,,,Canvassing,,,,,,,,,,,PM,,,,3.0,ZACK WIRTH (SD-09),DOORKNOCKING,2/6/26-3/25/26,DOORKNOCKING,N,,,,,,,,ZACK WIRTH,SENATE DISTRICT 9,REP,STATE SENATOR DISTRICT 9
AMERICANS FOR PROSPERITY - MONTANA,expenditure,02/06/2026 to 03/25/2026,C4,2026-03-12 00:00:00,UNITED STATES POSTAL SERVICE,,,,470 L'ENFANT PLAZA SW STE 604,WASHINGTON,DC,20024.0,,-882.14,,,,,,Mailer,,,,,,,,,,,PM,,,,3.0,ZACK WIRTH (SD-09),,"5,513",MAILER POSTAGE,N,,,,,,,,ZACK WIRTH,SENATE DISTRICT 9,REP,STATE SENATOR DISTRICT 9
AMERICANS FOR PROSPERITY - MONTANA,expenditure,02/06/2026 to 03/25/2026,C4,2026-03-12 00:00:00,FCG MAIL LLC,,,,558 E CASTLE PINES PKWY STE B-4 BOX 333,CASTLE PINES,CO,80108.0,,-2552.77,,,,,,Mailer,,,,,,,,,,,PM,,,,3.0,ZACK WIRTH (SD-09),,"5,513","MAILER DESIGN, PRINTING & PRODUCTION",N,,,,,,,,ZACK WIRTH,SENATE DISTRICT 9,REP,STATE SENATOR DISTRICT 9
AMERICANS FOR PROSPERITY - MONTANA,expenditure,02/06/2026 to 03/25/2026,C4,2026-02-19 00:00:00,IN PURSUIT OF,,,,4201 WILSON BLVD STE 900,ARLINGTON,VA,22203.0,,-11150.0,,,,,,Digital Advertising,,,,,,,,,,,PM,,,,3.0,ZACK WIRTH (SD-09),"FACEBOOK, INSTAGRAM, CTV & DSP",2/19/26-6/2/26,DIGITAL AD PLACEMENT,N,,,,,,,,ZACK WIRTH,SENATE DISTRICT 9,REP,STATE SENATOR DISTRICT 9
AMERICANS FOR PROSPERITY - MONTANA,expenditure,02/06/2026 to 03/25/2026,C4,2026-02-19 00:00:00,TARGETED VICTORY,,,,2311 Wilson Blvd S,ARLINGTON,VA,22201.0,,-4000.0,,,,,,Digital Advertising,,,,,,,,,,,PM,,,,3.0,ZACK WIRTH (SD-09),,2/19/26-6/2/26,DIGITAL AD PRODUCTION,N,,,,,,,,ZACK WIRTH,SENATE DISTRICT 9,REP,STATE SENATOR DISTRICT 9
AMERICANS FOR PROSPERITY - MONTANA,expenditure,02/06/2026 to 03/25/2026,C4,2026-02-08 00:00:00,META PLATFORMS INC,,,,1 META WAY,MENLO PARK,CA,94025.0,,-201.98,,,,,,Digital Advertising,,,,,,,,,,,PM,,,,3.0,ZACK WIRTH (SD-09),FACEBOOK,2/8/26-2/19/26,DIGITAL AD PLACEMENT,N,,,,,,,,ZACK WIRTH,SENATE DISTRICT 9,REP,STATE SENATOR DISTRICT 9
AMERICANS FOR PROSPERITY - MONTANA,expenditure,02/06/2026 to 03/25/2026,C4,2026-02-06 00:00:00,FCG MAIL LLC,,,,558 E CASTLE PINES PKWY STE B-4 BOX 333,CASTLE PINES,CO,80108.0,,-2804.5,,,,,,DOORHANGER,,,,,,,,,,,PM,,,,3.0,ZACK WIRTH (SD-09),,"5,000","DOORHANGER DESIGN, PRINTING & PRODUCTION",N,,,,,,,,ZACK WIRTH,SENATE DISTRICT 9,REP,STATE SENATOR DISTRICT 9
AMERICANS FOR PROSPERITY - MONTANA,expenditure,02/06/2026 to 03/25/2026,C4,2026-03-16 00:00:00,AMERICANS FOR PROSPERITY,,,,4201 WILSON BLVD STE 1000,ARLINGTON,VA,22203.0,,-162.56,,,,,,Canvassing,,,,,,,,,,,PM,,,,3.0,ZACK WIRTH (SD-09),DOORKNOCKING,3/16/26-3/25/26,DOORKNOCKING,N,,,,,,,,ZACK WIRTH,SENATE DISTRICT 9,REP,STATE SENATOR DISTRICT 9
AMERICANS FOR PROSPERITY - MONTANA,expenditure,02/06/2026 to 03/25/2026,C4,2026-03-01 00:00:00,AMERICANS FOR PROSPERITY,,,,4201 WILSON BLVD STE 1000,ARLINGTON,VA,22203.0,,-260.09,,,,,,Canvassing,,,,,,,,,,,PM,,,,3.0,ZACK WIRTH (SD-09),DOORKNOCKING,3/1/26-3/15/26,DOORKNOCKING,N,,,,,,,,ZACK WIRTH,SENATE DISTRICT 9,REP,STATE SENATOR DISTRICT 9
AMERICANS FOR PROSPERITY - MONTANA,expenditure,02/06/2026 to 03/25/2026,C4,2026-02-16 00:00:00,AMERICANS FOR PROSPERITY,,,,4201 WILSON BLVD,ARLINGTON,VA,22203.0,,-2828.78,,,,,,Canvassing,,,,,,,,,,,PM,,,,3.0,ZACK WIRTH (SD-09),DOORKNOCKING,2/16/26-2/28/26,DOORKNOCKING,N,,,,,,,,ZACK WIRTH,SENATE DISTRICT 9,REP,STATE SENATOR DISTRICT 9
AMERICANS FOR PROSPERITY - MONTANA,expenditure,02/06/2026 to 03/25/2026,C4,2026-03-16 00:00:00,AMERICANS FOR PROSPERITY,,,,4201 WILSON BLVD STE 1000,ARLINGTON,VA,22203.0,,-162.56,,,,,,Canvassing,,,,,,,,,,,PM,,,,3.0,KIM DAILEY (HD-85),DOORKNOCKING,3/16/26-3/25/26,DOORKNOCKING,N,,,,,,,,KIM DAILEY,HOUSE DISTRICT 85,REP,STATE REPRESENTATIVE DISTRICT 85
AMERICANS FOR PROSPERITY - MONTANA,expenditure,02/06/2026 to 03/25/2026,C4,2026-03-01 00:00:00,Canvass America,,,,45 N HILL DR STE 100,WARRENTON,VA,20186.0,,-679.0,,,,,,Canvassing,,,,,,,,,,,PM,,,,3.0,KIM DAILEY (HD-85),DOORKNOCKING,3/1/26/3/25/26,DOORKNOCKING,N,,,,,,,,KIM DAILEY,HOUSE DISTRICT 85,REP,STATE REPRESENTATIVE DISTRICT 85
AMERICANS FOR PROSPERITY - MONTANA,expenditure,02/06/2026 to 03/25/2026,C4,2026-03-01 00:00:00,AMERICANS FOR PROSPERITY,,,,4201 WILSON BLVD STE 1000,ARLINGTON,VA,22203.0,,-260.09,,,,,,Canvassing,,,,,,,,,,,PM,,,,3.0,KIM DAILEY (HD-85),DOORKNOCKING,3/1/26-3/15/26,DOORKNOCKING,N,,,,,,,,KIM DAILEY,HOUSE DISTRICT 85,REP,STATE REPRESENTATIVE DISTRICT 85
AMERICANS FOR PROSPERITY - MONTANA,expenditure,02/06/2026 to 03/25/2026,C4,2026-03-12 00:00:00,UNITED STATES POSTAL SERVICE,,,,470 L'ENFANT PLAZA SW STE 604,WASHINGTON,DC,20024.0,,-486.45,,,,,,Mailer ,,,,,,,,,,,PM,,,,3.0,KIM DAILEY (HD-85),,"3,083",MAILER POSTAGE,N,,,,,,,,KIM DAILEY,HOUSE DISTRICT 85,REP,STATE REPRESENTATIVE DISTRICT 85
AMERICANS FOR PROSPERITY - MONTANA,expenditure,02/06/2026 to 03/25/2026,C4,2026-03-12 00:00:00,FCG MAIL LLC,,,,558 E CASTLE PINES PKWY STE B-4 BOX 333,CASTLE PINES,CO,80108.0,,-1873.01,,,,,,Mailer,,,,,,,,,,,PM,,,,3.0,KIM DAILEY (HD-85),,"3,083","MAILER DESIGN, PRINTING & PRODUCTION",N,,,,,,,,KIM DAILEY,HOUSE DISTRICT 85,REP,STATE REPRESENTATIVE DISTRICT 85
AMERICANS FOR PROSPERITY - MONTANA,expenditure,02/06/2026 to 03/25/2026,C4,2026-03-06 00:00:00,TARGETED VICTORY,,,,2311 WILSON BLVD STE 200,ARLINGTON,VA,22201.0,,-1250.0,,,,,,Digital Advertising,,,,,,,,,,,PM,,,,3.0,KIM DAILEY (HD-85),,3/6/26-6/2/26,DIGITAL AD PRODUCTION,N,,,,,,,,KIM DAILEY,HOUSE DISTRICT 85,REP,STATE REPRESENTATIVE DISTRICT 85
AMERICANS FOR PROSPERITY - MONTANA,expenditure,02/06/2026 to 03/25/2026,C4,2026-03-01 00:00:00,FCG MAIL LLC,,,,558 E CASTLE PINES PKWY STE B-4 BOX 333,CASTLE PINES,CO,80108.0,,-1987.8,,,,,,DOORHANGER,,,,,,,,,,,PM,,,,3.0,KIM DAILEY (HD-85),,"2,000","DOORHANGER DESIGN, PRINTING & PRODUCTION",N,,,,,,,,KIM DAILEY,HOUSE DISTRICT 85,REP,STATE REPRESENTATIVE DISTRICT 85
AMERICANS FOR PROSPERITY - MONTANA,expenditure,02/06/2026 to 03/25/2026,C4,2026-02-27 00:00:00,IN PURSUIT OF,,,,4201 WILSON BLVD STE 1000,ARLINGTON,VA,22203.0,,-7600.0,,,,,,Digital Advertising,,,,,,,,,,,PM,,,,3.0,MARY HORMAN (HD-55),"FACEBOOK, INSTAGRAM, CTV & DSP",2/27/26-6/2/26,DIGITAL AD PLACEMENT,N,,,,,,,,MARY HORMAN,HOUSE DISTRICT 55,REP,STATE REPRESENTATIVE DISTRICT 55
AMERICANS FOR PROSPERITY - MONTANA,expenditure,02/06/2026 to 03/25/2026,C4,2026-02-27 00:00:00,TARGETED VICTORY,,,,2311 WILSON BLVD STE 200,ARLINGTON,VA,22201.0,,-1500.0,,,,,,Digital Advertising,,,,,,,,,,,PM,,,,3.0,MARY HORMAN (HD-55),,2/27/26-6/2/26,DIGITAL AD PRODUCTION,N,,,,,,,,MARY HORMAN,HOUSE DISTRICT 55,REP,STATE REPRESENTATIVE DISTRICT 55
AMERICANS FOR PROSPERITY - MONTANA,expenditure,02/06/2026 to 03/25/2026,C4,2026-02-08 00:00:00,META PLATFORMS INC,,,,1 META WAY,MENLO PARK,CA,94025.0,,-5.12,,,,,,Digital Advertising,,,,,,,,,,,PM,,,,3.0,MARY HORMAN (HD-55),FACEBOOK,2/8/26-2/19/26,DIGITAL AD PLACEMENT,N,,,,,,,,MARY HORMAN,HOUSE DISTRICT 55,REP,STATE REPRESENTATIVE DISTRICT 55
AMERICANS FOR PROSPERITY - MONTANA,expenditure,02/06/2026 to 03/25/2026,C4,2026-03-16 00:00:00,AMERICANS FOR PROSPERITY,,,,4201 WILSON BLVD STE 1000,ARLINGTON,VA,22203.0,,-162.56,,,,,,Canvassing,,,,,,,,,,,PM,,,,3.0,CALEB HINKLE (SD-34),DOORKNOCKING,3/16/26-3/25/26,DOORKNOCKING,N,,,,,,,,CALEB HINKLE,SENATE DISTRICT 34,REP,STATE SENATOR DISTRICT 34
AMERICANS FOR PROSPERITY - MONTANA,expenditure,02/06/2026 to 03/25/2026,C4,2026-03-01 00:00:00,AMERICANS FOR PROSPERITY,,,,4201 WILSON BLVD STE 1000,ARLINGTON,VA,22203.0,,-260.09,,,,,,Canvassing,,,,,,,,,,,PM,,,,3.0,CALEB HINKLE (SD-34),DOORKNOCKING,3/1/26-3/15/26,DOORKNOCKING,N,,,,,,,,CALEB HINKLE,SENATE DISTRICT 34,REP,STATE SENATOR DISTRICT 34
AMERICANS FOR PROSPERITY - MONTANA,expenditure,02/06/2026 to 03/25/2026,C4,2026-02-16 00:00:00,AMERICANS FOR PROSPERITY,,,,4201 WILSON BLVD STE 1000,ARLINGTON,VA,22203.0,,-565.76,,,,,,Canvassing,,,,,,,,,,,PM,,,,3.0,CALEB HINKLE (SD-34),DOORKNOCKING,2/16/26-2/28/26,DOORKNOCKING,N,,,,,,,,CALEB HINKLE,SENATE DISTRICT 34,REP,STATE SENATOR DISTRICT 34
AMERICANS FOR PROSPERITY - MONTANA,expenditure,02/06/2026 to 03/25/2026,C4,2026-02-06 00:00:00,AMERICANS FOR PROSPERITY,,,,4201 WILSON BLVD STE 1000,ARLINGTON,VA,22203.0,,-565.76,,,,,,Canvassing,,,,,,,,,,,PM,,,,3.0,CALEB HINKLE (SD-34),DOORKNOCKING,2/6/26-2/15/26,DOORKNOCKING,N,,,,,,,,CALEB HINKLE,SENATE DISTRICT 34,REP,STATE SENATOR DISTRICT 34
AMERICANS FOR PROSPERITY - MONTANA,expenditure,02/06/2026 to 03/25/2026,C4,2026-02-06 00:00:00,CANVASS AMERICA,,,,45 N HILL DRIVE STE 100,WARRENTON,VA,20186.0,,-933.0,,,,,,Canvassing,,,,,,,,,,,PM,,,,3.0,CALEB HINKLE,DOORKNOCKING,2/6/26-3/25/26,DOORKNOCKING,N,,,,,,,,CALEB HINKLE,SENATE DISTRICT 34,REP,STATE SENATOR DISTRICT 34
AMERICANS FOR PROSPERITY - MONTANA,expenditure,02/06/2026 to 03/25/2026,C4,2026-03-12 00:00:00,UNITED STATES POSTAL SERVICE,,,UNITED STATES POSTAL SERVICE,470 L'ENFANT PLAZA SW STE 604,WASHINGTON,DC,20024.0,,-569.19,,,,,,Mailer,,,,,,,,,,,PM,,,,3.0,CAELB HINKLE (SD-34),,"3,635",MAILER POSTAGE,N,,,,,,,,CALEB HINKLE,SENATE DISTRICT 34,REP,STATE SENATOR DISTRICT 34
AMERICANS FOR PROSPERITY - MONTANA,expenditure,02/06/2026 to 03/25/2026,C4,2026-03-12 00:00:00,FCG MAIL LLC,,,FCG MAIL LLC,558 E CASTLE PINES PKWY STE B-4 BOX 333,CASTLE PINES,CO,80108.0,,-2023.97,,,,,,Mailer,,,,,,,,,,,PM,,,,3.0,CALEB HINKLE (SD-34),,"3,635","MAILER DESIGN, PRINTING & PRODUCTION",N,,,,,,,,CALEB HINKLE,SENATE DISTRICT 34,REP,STATE SENATOR DISTRICT 34
AMERICANS FOR PROSPERITY - MONTANA,expenditure,02/06/2026 to 03/25/2026,C4,2026-02-06 00:00:00,IN PURSUIT OF,,,IN PURSUIT OF LLC,4201 WILSON BLVD STE 900,ARLINGTON,VA,22203.0,,-3450.0,,,,,,Digital Advertising,,,,,,,,,,,PM,,,,3.0,CALEB HINKLE (SD-34),"FACEBOOK, INSTAGRAM, CTV & DSP",2/6/26-6/2/26,DIGITAL AD PLACEMENT,N,,,,,,,,CALEB HINKLE,SENATE DISTRICT 34,REP,STATE SENATOR DISTRICT 34
AMERICANS FOR PROSPERITY - MONTANA,expenditure,02/06/2026 to 03/25/2026,C4,2026-03-06 00:00:00,TARGETED VICTORY,,,,2311 WILSON BLVD STE 200,ARLINGTON,VA,22201.0,,-4000.0,,,,,,Digital Advertising,,,,,,,,,,,PM,,,,3.0,CALEB HINKLE (SD-34),,2/6/26-6/2/26,DIGITAL AD PRODUCTION,N,,,,,,,,CALEB HINKLE,SENATE DISTRICT 34,REP,STATE SENATOR DISTRICT 34
AMERICANS FOR PROSPERITY - MONTANA,expenditure,02/06/2026 to 03/25/2026,C4,2026-02-06 00:00:00,FCG MAIL LLC,,,,558 E CASTLE PINES PKWY STE B-4 BOX 333,CASTLE PINES,CO,80108.0,,-2804.5,,,,,,DOORHANGER,,,,,,,,,,,PM,,,,3.0,CALEB HINKLE (SD-34),,"5,000","DOORHANGER DESIGN, PRINTING & PRODUCTION",N,,,,,,,,CALEB HINKLE,SENATE DISTRICT 34,REP,STATE SENATOR DISTRICT 34
AMERICANS FOR PROSPERITY - MONTANA,expenditure,02/06/2026 to 03/25/2026,C4,2026-03-02 00:00:00,FCG MAIL LLC,,,,558 E CASTLE PINES PKWY STE B-4 BOX 333,CASTLE PINES,CO,80108.0,,-1987.8,,,,,,DOORHANGER,,,,,,,,,,,PM,,,,3.0,JOHN SOUTH (HD-28),,"2,000","DOORHANGER DESIGN, PRINTING & PRODUCTION",N,,,,,,,,JOHN SOUTH,HOUSE DISTRICT 28,REP,STATE REPRESENTATIVE DISTRICT 28
