Committee,Type,Reporting Period,Report Type,Date Paid,Entity Name,First Name,Middle Initial,Last Name,Addr Line1,City,State,Zip,Zip4,Amount,Country,Occupation,Employer,Contribution Type,Amount Type,Purpose,Total To Date,Refund Transaction Type,Refund Original Transaction Date,Refund Original Transaction Total,Refund Original Transaction Descr,Previous Transaction (Y/N),Fundraiser Name,Fundraiser Location,Fundraiser Attendees,Fundraiser Tickets Sold,Election Type,Total Primary,Total General,type,Expenditure Type,Candidate Issue,Expenditure Platform,Expenditure Quantity,Expenditure Specific Services,Attachment,# of Donors - Individuals,Total $ - Individual,# of Donors - Committees,Total $ - Committee,Expenditure Paid Communications Platform,Expenditure Paid Communications Quantity,Expenditure Paid Communications Subject Matter,Matched Candidate,Matched District,Matched Party,Matched Race
School Freedom Fund,expenditure,04/26/2026 to 05/24/2026,C6,2026-05-14 00:00:00,Whistlestop Strategies LLC,,,,"100 Coastal Drive, Suite 305",Charleston,SC,29492,,-2974.0,,,,,,Mail production/postage,,,,,,,,,,,PM,,,,3,Oppose George Nikolakakos,Mail,3360,mail production/postage,N,,,,,,,,GEORGE NIKOLAKAKOS,SENATE DISTRICT 12,REP,STATE SENATOR DISTRICT 12
School Freedom Fund,expenditure,04/26/2026 to 05/24/2026,C6,2026-05-14 00:00:00,Whistlestop Strategies LLC,,,,"100 Coastal Drive, Suite 305",Charleston,SC,29492,,-2433.0,,,,,,Mail production/postage,,,,,,,,,,,PM,,,,3,Oppose Curtis Cochran,Mail,2113,mail production/postage,N,,,,,,,,CURTIS J COCHRAN,HOUSE DISTRICT 90,REP,STATE REPRESENTATIVE DISTRICT 90
School Freedom Fund,expenditure,04/26/2026 to 05/24/2026,C6,2026-05-14 00:00:00,Whistlestop Strategies LLC,,,,"100 Coastal Drive, Suite 305",Charleston,SC,29492,,-2385.0,,,,,,Mail production/postage,,,,,,,,,,,PM,,,,3,Oppose Wayne Rusk,Mail,2004,mail production/postage,N,,,,,,,,WAYNE RUSK,HOUSE DISTRICT 86,REP,STATE REPRESENTATIVE DISTRICT 86
School Freedom Fund,expenditure,04/26/2026 to 05/24/2026,C6,2026-04-26 00:00:00,Google,,,,1600 Amphitheatre Parkway,Mountain View,CA,94043,,-2500.0,,,,,,Digital Advertising,,,,,,,,,,,PM,,,,3,Oppose John Fitzpatrick,Google,,Digital advertising,N,,,,,,,,JOHN FITZPATRICK,HOUSE DISTRICT 76,REP,STATE REPRESENTATIVE DISTRICT 76
School Freedom Fund,expenditure,04/26/2026 to 05/24/2026,C6,2026-04-26 00:00:00,Google,,,,1600 Amphitheatre Parkway,Mountain View,CA,94043,,-4000.0,,,,,,Digital Advertising,,,,,,,,,,,PM,,,,3,Oppose Ken Walsh,Google,,digital advertising,N,,,,,,,,KEN WALSH,HOUSE DISTRICT 69,REP,STATE REPRESENTATIVE DISTRICT 69
School Freedom Fund,expenditure,04/26/2026 to 05/24/2026,C6,2026-04-26 00:00:00,Google,,,,1600 Amphitheatre Parkway,Mountain View,CA,94043,,-4806.42,,,,,,Digital Advertising,,,,,,,,,,,PM,,,,3,Oppose Brad Barker,Google,,digital advertising,N,,,,,,,,BRAD BARKER,HOUSE DISTRICT 55,REP,STATE REPRESENTATIVE DISTRICT 55
School Freedom Fund,expenditure,04/26/2026 to 05/24/2026,C6,2026-04-26 00:00:00,Google,,,,1600 Amphitheatre Parkway,Mountain View,CA,94043,,-543.87,,,,,,Digital Advertising,,,,,,,,,,,PM,,,,3,Oppose George Nikolakakos,Google,,digital advertising ,N,,,,,,,,GEORGE NIKOLAKAKOS,SENATE DISTRICT 12,REP,STATE SENATOR DISTRICT 12
School Freedom Fund,expenditure,04/26/2026 to 05/24/2026,C6,2026-05-05 00:00:00,Whistlestop Strategies LLC,,,,100 Coastal Drive,Charleston,SC,29492,,-2337.0,,,,,,Mail production/postage,,,,,,,,,,,PM,,,,3,Support Mike Vinton,Mail,1893,mail production/postage,N,,,,,,,,MIKE VINTON,HOUSE DISTRICT 40,REP,STATE REPRESENTATIVE DISTRICT 40
School Freedom Fund,expenditure,04/26/2026 to 05/24/2026,C6,2026-05-05 00:00:00,Whistlestop Strategies LLC,,,,100 Coastal Drive,Charleston,SC,29492,,-2487.0,,,,,,Mail production/postage,,,,,,,,,,,PM,,,,3,Support Jim Riley,Mail,2468,mail production/postage,N,,,,,,,,JIM RILEY,HOUSE DISTRICT 6,REP,STATE REPRESENTATIVE DISTRICT 6
School Freedom Fund,expenditure,04/26/2026 to 05/24/2026,C6,2026-05-05 00:00:00,Whistlestop Strategies LLC,,,,100 Coastal Drive,Charleston,SC,29492,,-2433.0,,,,,,Mail production/postage,,,,,,,,,,,PM,,,,3,Support Jeff Stanek,mail,2113,mail production/postage,N,,,,,,,,JEFF STANEK,HOUSE DISTRICT 90,REP,STATE REPRESENTATIVE DISTRICT 90
School Freedom Fund,expenditure,04/26/2026 to 05/24/2026,C6,2026-05-05 00:00:00,Whistlestop Strategies LLC,,,,100 Coastal Drive,Charleston,SC,29492,,-2385.0,,,,,,Mail production/postage,,,,,,,,,,,PM,,,,3,Support Ken Allen,Mail,2004,mail production/postage,N,,,,,,,,KENNETH E ALLEN,HOUSE DISTRICT 86,REP,STATE REPRESENTATIVE DISTRICT 86
School Freedom Fund,expenditure,04/26/2026 to 05/24/2026,C6,2026-05-05 00:00:00,Whistlestop Strategies LLC,,,,100 Coastal Drive,Charleston,SC,29492,,-2555.0,,,,,,Mail production/postage,,,,,,,,,,,PM,,,,3,Support Trevor Funseth,mail,2394,mail production/postage,N,,,,,,,,TREVOR P FUNSETH,HOUSE DISTRICT 21,REP,STATE REPRESENTATIVE DISTRICT 21
School Freedom Fund,expenditure,04/26/2026 to 05/24/2026,C6,2026-05-05 00:00:00,Whistlestop Strategies LLC,,,,100 Coastal Drive,Charleston,SC,29492,,-2183.0,,,,,,Mail production/postage,,,,,,,,,,,PM,,,,3,Support Jed Hinkle,Mail,1537,mail production/postage,N,,,,,,,,JEDEDIAH HINKLE,HOUSE DISTRICT 67,REP,STATE REPRESENTATIVE DISTRICT 67
School Freedom Fund,expenditure,04/26/2026 to 05/24/2026,C6,2026-05-05 00:00:00,Whistlestop Strategies LLC,,,,100 Coastal Drive,Charleston,SC,29492,,-2552.0,,,,,,Mail production/postage,,,,,,,,,,,PM,,,,3,Support Mary Horman,Mail,2387,mail production/postage,N,,,,,,,,MARY HORMAN,HOUSE DISTRICT 55,REP,STATE REPRESENTATIVE DISTRICT 55
School Freedom Fund,expenditure,04/26/2026 to 05/24/2026,C6,2026-05-01 00:00:00,Whistlestop Strategies LLC,,,,100 Coastal Drive,Charleston,SC,22202,,-2626.0,,,,,,Mail production/postage,,,,,,,,,,,PM,,,,3,Oppose Jason Ellsworth,mail,2557,mail production/postage,N,,,,,,,,JASON ELLSWORTH,HOUSE DISTRICT 34,REP,STATE REPRESENTATIVE DISTRICT 34
School Freedom Fund,expenditure,04/26/2026 to 05/24/2026,C6,2026-05-01 00:00:00,Whistlestop Strategies LLC,,,,100 Coastal Drive,Charleston,SC,22202,,-2483.0,,,,,,Mail production/postage,,,,,,,,,,,PM,,,,3,Oppose Susan Geise,mail,2229,mail production/postage,N,,,,,,,,SUSAN GEISE,HOUSE DISTRICT 17,REP,STATE REPRESENTATIVE DISTRICT 17
School Freedom Fund,expenditure,04/26/2026 to 05/24/2026,C6,2026-05-01 00:00:00,Whistlestop Strategies LLC,,,,100 Coastal Drive,Charleston,SC,22202,,-3281.0,,,,,,Mail production/postage,,,,,,,,,,,PM,,,,3,Oppose Mike Talia,mail,4066,mail production/postage,N,,,,,,,,MIKE TALIA,SENATE DISTRICT 42,REP,STATE SENATOR DISTRICT 42
School Freedom Fund,expenditure,04/26/2026 to 05/24/2026,C6,2026-05-01 00:00:00,Whistlestop Strategies LLC,,,,100 Coastal Drive,Charleston,SC,22202,,-3315.0,,,,,,Mail production/postage,,,,,,,,,,,PM,,,,3,Oppose Doug Martens,Mail,4144,mail production/postage,N,,,,,,,,DOUG MARTENS,SENATE DISTRICT 18,REP,STATE SENATOR DISTRICT 18
School Freedom Fund,expenditure,04/26/2026 to 05/24/2026,C6,2026-05-01 00:00:00,Whistlestop Strategies LLC,,,,100 Coastal Drive,Charleston,SC,22202,,-2974.0,,,,,,Mail production/postage,,,,,,,,,,,PM,,,,3,Oppose George Nikolakakos,Mail,3360,mail production/postage,N,,,,,,,,GEORGE NIKOLAKAKOS,SENATE DISTRICT 12,REP,STATE SENATOR DISTRICT 12
School Freedom Fund,expenditure,04/26/2026 to 05/24/2026,C6,2026-04-28 00:00:00,Whistlestop Strategies LLC,,,,100 Coastal Drive,Charleston,SC,22202,,-2536.0,,,,,,Mail production/postage,,,,,,,,,,,PM,,,,3,Oppose John Fitzpatrick,Mail,2352,mail production/postage,N,,,,,,,,JOHN FITZPATRICK,HOUSE DISTRICT 76,REP,STATE REPRESENTATIVE DISTRICT 76
School Freedom Fund,expenditure,04/26/2026 to 05/24/2026,C6,2026-05-05 00:00:00,Whistlestop Strategies LLC,,,,100 Coastal Drive,Charleston,SC,29492,,-2483.0,,,,,,Mail production/postage,,,,,,,,,,,PM,,,,3,Support Justin Cleveland,Mail,2229,mail production/postage,N,,,,,,,,JUSTIN W CLEVELAND,HOUSE DISTRICT 17,REP,STATE REPRESENTATIVE DISTRICT 17
School Freedom Fund,expenditure,04/26/2026 to 05/24/2026,C6,2026-05-05 00:00:00,Whistlestop Strategies LLC,,,,100 Coastal Drive,Charleston,SC,29492,,-3281.0,,,,,,Mail production/postage,,,,,,,,,,,PM,,,,3,Support Steve LaPraim,Mail,4066,mail production/postage,N,,,,,,,,STEPHEN LAPRAIM,SENATE DISTRICT 42,REP,STATE SENATOR DISTRICT 42
School Freedom Fund,expenditure,04/26/2026 to 05/24/2026,C6,2026-05-05 00:00:00,Whistlestop Strategies LLC,,,,100 Coastal Drive,Charleston,SC,29492,,-3315.0,,,,,,Mail production/postage,,,,,,,,,,,PM,,,,3,Support Greg Kmetz,mail,4144,mail production/postage,N,,,,,,,,GREG KMETZ,SENATE DISTRICT 18,REP,STATE SENATOR DISTRICT 18
School Freedom Fund,expenditure,04/26/2026 to 05/24/2026,C6,2026-05-01 00:00:00,Whistlestop Strategies LLC,,,,100 Coastal Drive,Charleston,SC,29492,,-2483.0,,,,,,Mail production/postage,,,,,,,,,,,PM,,,,3,Support Nelly Nicol,Mail,2230,mail production/postage,N,,,,,,,,NELLY NICOL,HOUSE DISTRICT 53,REP,STATE REPRESENTATIVE DISTRICT 53
School Freedom Fund,expenditure,04/26/2026 to 05/24/2026,C6,2026-05-01 00:00:00,Whistlestop Strategies LLC,,,,100 Coastal Drive,Charleston,SC,29492,,-2260.0,,,,,,Mail production/postage,,,,,,,,,,,PM,,,,3,Support Charlie Loveridge,Mail,1716,mail production/postage,N,,,,,,,,CHARLIE LOVERIDGE,HOUSE DISTRICT 49,REP,STATE REPRESENTATIVE DISTRICT 49
School Freedom Fund,expenditure,04/26/2026 to 05/24/2026,C6,2026-05-01 00:00:00,Whistlestop Strategies LLC,,,,100 Coastal Drive,Charleston,SC,29492,,-3662.0,,,,,,Mail production/postage,,,,,,,,,,,PM,,,,3,Support Barry Usher,Mail,4944,mail production/postage,N,,,,,,,,BARRY USHER,SENATE DISTRICT 19,REP,STATE SENATOR DISTRICT 19
School Freedom Fund,expenditure,04/26/2026 to 05/24/2026,C6,2026-05-07 00:00:00,SFF Buying LLC,,,,"3900 Teleport Blvd, #140053",Irving,TX,75014,,-2986.55,,,,,,Radio Advertising,,,,,,,,,,,PM,,,,3,Support Jeff Stanek,Radio,,Radio Advertising,N,,,,,,,,JEFF STANEK,HOUSE DISTRICT 90,REP,STATE REPRESENTATIVE DISTRICT 90
School Freedom Fund,expenditure,04/26/2026 to 05/24/2026,C6,2026-05-07 00:00:00,SFF Buying LLC,,,,"3900 Teleport Blvd, #140053",Irving,TX,75014,,-2986.55,,,,,,Radio Advertising,,,,,,,,,,,PM,,,,3,Oppose Curtis Cochran,Radio,,radio advertising,N,,,,,,,,CURTIS J COCHRAN,HOUSE DISTRICT 90,REP,STATE REPRESENTATIVE DISTRICT 90
School Freedom Fund,expenditure,04/26/2026 to 05/24/2026,C6,2026-05-07 00:00:00,SFF Buying LLC,,,,"3900 Teleport Blvd, #140053",Irving,TX,75014,,-3505.95,,,,,,Radio Advertising,,,,,,,,,,,PM,,,,3,Oppose John Fitzpatrick,Radio,,Radio advertising,N,,,,,,,,JOHN FITZPATRICK,HOUSE DISTRICT 76,REP,STATE REPRESENTATIVE DISTRICT 76
School Freedom Fund,expenditure,04/26/2026 to 05/24/2026,C6,2026-05-07 00:00:00,SFF Buying LLC,,,,"3900 Teleport Blvd, #140053",Irving,TX,75014,,-3505.95,,,,,,Radio Advertising,,,,,,,,,,,PM,,,,3,Support Trish Schreiber,Radio,,Radio Advertising,N,,,,,,,,TRISH SCHREIBER,HOUSE DISTRICT 76,REP,STATE REPRESENTATIVE DISTRICT 76
School Freedom Fund,expenditure,04/26/2026 to 05/24/2026,C6,2026-05-07 00:00:00,SFF Buying LLC,,,,"3900 Teleport Blvd, #140053",Irving,TX,75014,,-6566.7,,,,,,Radio Advertising,,,,,,,,,,,PM,,,,3,Oppose Ken Walsh,Radio,,Radio Advertising,N,,,,,,,,KEN WALSH,HOUSE DISTRICT 69,REP,STATE REPRESENTATIVE DISTRICT 69
School Freedom Fund,expenditure,04/26/2026 to 05/24/2026,C6,2026-05-07 00:00:00,SFF Buying LLC,,,,"3900 Teleport Blvd, #140053",Irving,TX,75014,,-6566.7,,,,,,Radio Advertising,,,,,,,,,,,PM,,,,3,Support Trevor Walker,Radio,,Radio Advertising,N,,,,,,,,ED WALKER,HOUSE DISTRICT 52,REP,STATE REPRESENTATIVE DISTRICT 52
School Freedom Fund,expenditure,04/26/2026 to 05/24/2026,C6,2026-05-07 00:00:00,SFF Buying LLC,,,,"3900 Teleport Blvd, #140053",Irving,TX,75014,,-4368.52,,,,,,Radio Advertising,,,,,,,,,,,PM,,,,3,Oppose Brad Barker,Radio,,Radio Advertising,N,,,,,,,,BRAD BARKER,HOUSE DISTRICT 55,REP,STATE REPRESENTATIVE DISTRICT 55
School Freedom Fund,expenditure,04/26/2026 to 05/24/2026,C6,2026-05-07 00:00:00,SFF Buying LLC,,,,"3900 Teleport Blvd, #140053",Irving,TX,75014,,-4368.53,,,,,,Radio Advertising,,,,,,,,,,,PM,,,,3,Support Mary Horman,Radio,,Radio Advertising,N,,,,,,,,MARY HORMAN,HOUSE DISTRICT 55,REP,STATE REPRESENTATIVE DISTRICT 55
School Freedom Fund,expenditure,04/26/2026 to 05/24/2026,C6,2026-05-07 00:00:00,SFF Buying LLC,,,,"3900 Teleport Blvd, #140053",Irving,TX,75014,,-3181.33,,,,,,Radio Advertising,,,,,,,,,,,PM,,,,3,Oppose Stacy Zinn,Radio,,Radio Advertising,N,,,,,,,,STACY ZINN,HOUSE DISTRICT 52,REP,STATE REPRESENTATIVE DISTRICT 52
School Freedom Fund,expenditure,04/26/2026 to 05/24/2026,C6,2026-05-07 00:00:00,SFF Buying LLC,,,,"3900 Teleport Blvd, #140053",Irving,TX,75014,,-3181.32,,,,,,Radio Advertising,,,,,,,,,,,PM,,,,3,Support Ed Walker,Radio,,Radio Advertising,N,,,,,,,,ED WALKER,HOUSE DISTRICT 52,REP,STATE REPRESENTATIVE DISTRICT 52
School Freedom Fund,expenditure,04/26/2026 to 05/24/2026,C6,2026-05-07 00:00:00,SFF Buying LLC,,,,"3900 Teleport Blvd, #140053",Irving,TX,75014,,-3199.88,,,,,,Radio Advertising,,,,,,,,,,,PM,,,,3,Support Linda Harmon,Radio,,Radio Advertising,N,,,,,,,,LINDA HARMON,HOUSE DISTRICT 29,REP,STATE REPRESENTATIVE DISTRICT 29
School Freedom Fund,expenditure,04/26/2026 to 05/24/2026,C6,2026-05-07 00:00:00,SFF Buying LLC,,,,"3900 Teleport Blvd, #140053",Irving,TX,75014,,-3199.87,,,,,,Radio Advertising,,,,,,,,,,,PM,,,,3,Oppose Valerie Moore,Radio,,Radio advertising ,N,,,,,,,,VALERIE MOORE,HOUSE DISTRICT 29,REP,STATE REPRESENTATIVE DISTRICT 29
School Freedom Fund,expenditure,04/26/2026 to 05/24/2026,C6,2026-05-07 00:00:00,SFF Buying LLC,,,,"3900 Teleport Blvd, #140053",Irving,TX,75014,,-3626.52,,,,,,Radio Advertising,,,,,,,,,,,PM,,,,3,Oppose Mike Talia,Radio,,Radio Advertising,N,,,,,,,,MIKE TALIA,SENATE DISTRICT 42,REP,STATE SENATOR DISTRICT 42
School Freedom Fund,expenditure,04/26/2026 to 05/24/2026,C6,2026-05-07 00:00:00,SFF Buying LLC,,,,"3900 Teleport Blvd, #140053",Irving,TX,75014,,-3626.53,,,,,,Radio Advertising,,,,,,,,,,,PM,,,,3,Support Steve LaPraim,Radio,,radio advertising,N,,,,,,,,STEPHEN LAPRAIM,SENATE DISTRICT 42,REP,STATE SENATOR DISTRICT 42
School Freedom Fund,expenditure,04/26/2026 to 05/24/2026,C6,2026-05-07 00:00:00,SFF Buying LLC,,,,"3900 Teleport Blvd, #140053",Irving,TX,75014,,-1688.05,,,,,,Radio Advertising,,,,,,,,,,,PM,,,,3,Oppose Shelley Vance,Radio,,Radio Advertising,N,,,,,,,,SHELLEY VANCE,SENATE DISTRICT 34,REP,STATE SENATOR DISTRICT 34
School Freedom Fund,expenditure,04/26/2026 to 05/24/2026,C6,2026-05-07 00:00:00,SFF Buying LLC,,,,"3900 Teleport Blvd, #140053",Irving,TX,75014,,-1688.05,,,,,,Radio Advertising,,,,,,,,,,,PM,,,,3,Support Caleb Hinkle,Radio,,Radio Advertising,N,,,,,,,,CALEB HINKLE,SENATE DISTRICT 34,REP,STATE SENATOR DISTRICT 34
School Freedom Fund,expenditure,04/26/2026 to 05/24/2026,C6,2026-05-07 00:00:00,SFF Buying LLC,,,,"3900 Teleport Blvd, #140053",Irving,TX,75014,,-3505.95,,,,,,Radio Advertising,,,,,,,,,,,PM,,,,3,Support Barry Usher,Radio,N/a,Radio Advertising,N,,,,,,,,BARRY USHER,SENATE DISTRICT 19,REP,STATE SENATOR DISTRICT 19
School Freedom Fund,expenditure,04/26/2026 to 05/24/2026,C6,2026-05-12 00:00:00,Capcor Strategies,,,,1345 S Capitol St SW,Washington,DC,20003,,-19541.0,,,,,,Door to door canvassing,,,,,,,,,,,PM,,,,3,Oppose George Nikolakaos,door to door,,door to door canvassing,N,,,,,,,,GEORGE NIKOLAKAKOS,SENATE DISTRICT 12,REP,STATE SENATOR DISTRICT 12
School Freedom Fund,expenditure,04/26/2026 to 05/24/2026,C6,2026-05-12 00:00:00,Capcor Strategies,,,,1345 S Capitol St SW,Washington,DC,20003,,-19541.0,,,,,,Door to door canvassing,,,,,,,,,,,PM,,,,3,Support Randy Pinocci,Door to door,,door to door canvassing,N,,,,,,,,RANDY PINOCCI,SENATE DISTRICT 12,REP,STATE SENATOR DISTRICT 12
School Freedom Fund,expenditure,04/26/2026 to 05/24/2026,C6,2026-05-21 00:00:00,Whistlestop Strategies LLC,,,,100 Coastal Drive,Charleston,SC,29492,,-2483.0,,,,,,Mail production/postage,,,,,,,,,,,PM,,,,3,Support Nelly Nicol,mail,2230,mail production/postage,N,,,,,,,,NELLY NICOL,HOUSE DISTRICT 53,REP,STATE REPRESENTATIVE DISTRICT 53
School Freedom Fund,expenditure,04/26/2026 to 05/24/2026,C6,2026-05-21 00:00:00,Whistlestop Strategies LLC,,,,100 Coastal Drive,Charleston,SC,29492,,-3662.0,,,,,,Mail production/postage,,,,,,,,,,,PM,,,,3,Support Barry Usher,Mail,4944,mail production/postage,N,,,,,,,,BARRY USHER,SENATE DISTRICT 19,REP,STATE SENATOR DISTRICT 19
School Freedom Fund,expenditure,04/26/2026 to 05/24/2026,C6,2026-05-21 00:00:00,Whistlestop Strategies LLC,,,,"100 Coastal Drive, Suite 305",Charleston,SC,29492,,-2483.0,,,,,,Mail production/postage,,,,,,,,,,,PM,,,,3,Oppose Susan Geise,mail,2229,mail production/postage,N,,,,,,,,SUSAN GEISE,HOUSE DISTRICT 17,REP,STATE REPRESENTATIVE DISTRICT 17
School Freedom Fund,expenditure,04/26/2026 to 05/24/2026,C6,2026-05-21 00:00:00,Whistlestop Strategies LLC,,,,"100 Coastal Drive, Suite 305",Charleston,SC,29492,,-3281.0,,,,,,Mail production/postage,,,,,,,,,,,PM,,,,3,Oppose Mike Talia,mail,4066,mail production/postage,N,,,,,,,,MIKE TALIA,SENATE DISTRICT 42,REP,STATE SENATOR DISTRICT 42
School Freedom Fund,expenditure,04/26/2026 to 05/24/2026,C6,2026-05-21 00:00:00,Whistlestop Strategies LLC,,,,"100 Coastal Drive, Suite 305",Charleston,SC,29492,,-2995.0,,,,,,Mail production/postage,,,,,,,,,,,PM,,,,3,Oppose Shelley Vance,mail,3407,mail production/postage,N,,,,,,,,SHELLEY VANCE,SENATE DISTRICT 34,REP,STATE SENATOR DISTRICT 34
School Freedom Fund,expenditure,04/26/2026 to 05/24/2026,C6,2026-05-21 00:00:00,Whistlestop Strategies LLC,,,,"100 Coastal Drive, Suite 305",Charleston,SC,29492,,-3662.0,,,,,,Mail production/postage,,,,,,,,,,,PM,,,,3,Oppose Chris Rindal,Mail,4944,mail production/postage,N,,,,,,,,CHRIS RINDAL,SENATE DISTRICT 19,REP,STATE SENATOR DISTRICT 19
School Freedom Fund,expenditure,04/26/2026 to 05/24/2026,C6,2026-05-21 00:00:00,Whistlestop Strategies LLC,,,,"100 Coastal Drive, Suite 305",Charleston,SC,29492,,-3315.0,,,,,,Mail production/postage,,,,,,,,,,,PM,,,,3,Oppose Doug Martens,Mail,4144,mail production/postage,N,,,,,,,,DOUG MARTENS,SENATE DISTRICT 18,REP,STATE SENATOR DISTRICT 18
School Freedom Fund,expenditure,04/26/2026 to 05/24/2026,C6,2026-05-21 00:00:00,Whistlestop Strategies LLC,,,,"100 Coastal Drive, Suite 305",Charleston,SC,29492,,-2974.0,,,,,,Mail production/postage,,,,,,,,,,,PM,,,,3,Oppose George Nikolakakos,Mail,3360,mail production/postage,N,,,,,,,,GEORGE NIKOLAKAKOS,SENATE DISTRICT 12,REP,STATE SENATOR DISTRICT 12
School Freedom Fund,expenditure,04/26/2026 to 05/24/2026,C6,2026-05-08 00:00:00,Whistlestop Strategies LLC,,,,100 Coastal Drive,Charleston,SC,29492,,-2536.0,,,,,,Mail production/postage,,,,,,,,,,,PM,,,,3,Oppose John Fitzpatrick,Mail,2352,mail production/postage,N,,,,,,,,JOHN FITZPATRICK,HOUSE DISTRICT 76,REP,STATE REPRESENTATIVE DISTRICT 76
School Freedom Fund,expenditure,04/26/2026 to 05/24/2026,C6,2026-05-08 00:00:00,Whistlestop Strategies LLC,,,,100 Coastal Drive,Charleston,SC,29492,,-2563.0,,,,,,Mail production/postage,,,,,,,,,,,PM,,,,3,Oppose Valerie Moore,Mail,2414,mail production/postage,N,,,,,,,,VALERIE MOORE,HOUSE DISTRICT 29,REP,STATE REPRESENTATIVE DISTRICT 29
School Freedom Fund,expenditure,04/26/2026 to 05/24/2026,C6,2026-05-05 00:00:00,Whistlestop Strategies LLC,,,,100 Coastal Drive,Charleston,SC,29492,,-2995.0,,,,,,Mail production/postage,,,,,,,,,,,PM,,,,3,Oppose Shelley Vance,Mail,3407,mail production/postage,N,,,,,,,,SHELLEY VANCE,SENATE DISTRICT 34,REP,STATE SENATOR DISTRICT 34
School Freedom Fund,expenditure,04/26/2026 to 05/24/2026,C6,2026-05-05 00:00:00,Whistlestop Strategies LLC,,,,100 Coastal Drive,Charleston,SC,29492,,-2563.0,,,,,,Mail production/postage,,,,,,,,,,,PM,,,,3,Oppose Valerie Moore,Mail,2414,mail production/postage,N,,,,,,,,VALERIE MOORE,HOUSE DISTRICT 29,REP,STATE REPRESENTATIVE DISTRICT 29
School Freedom Fund,expenditure,04/26/2026 to 05/24/2026,C6,2026-05-01 00:00:00,Whistlestop Strategies LLC,,,,100 Coastal Drive,Charleston,SC,29492,,-2995.0,,,,,,Mail production/postage,,,,,,,,,,,PM,,,,3,Oppose Shelley Vance,Mail,3407,mail production/postage,N,,,,,,,,SHELLEY VANCE,SENATE DISTRICT 34,REP,STATE SENATOR DISTRICT 34
School Freedom Fund,expenditure,04/26/2026 to 05/24/2026,C6,2026-05-01 00:00:00,Whistlestop Strategies LLC,,,,100 Coastal Drive,Charleston,SC,29492,,-2536.0,,,,,,Mail production/postage,,,,,,,,,,,PM,,,,3,Oppose John Fitzpatrick,Mail,2352,mail production/postage,N,,,,,,,,JOHN FITZPATRICK,HOUSE DISTRICT 76,REP,STATE REPRESENTATIVE DISTRICT 76
School Freedom Fund,expenditure,04/26/2026 to 05/24/2026,C6,2026-05-24 00:00:00,Whistlestop Strategies LLC,,,,100 Coastal Drive,Charleston,SC,29492,,-2310.0,,,,,,Mail production/postage,,,,,,,,,,,PM,,,,3,Support Trevor Funseth,Mail,2566,mail production/postage,N,,,,,,,,TREVOR P FUNSETH,HOUSE DISTRICT 21,REP,STATE REPRESENTATIVE DISTRICT 21
School Freedom Fund,expenditure,04/26/2026 to 05/24/2026,C6,2026-05-05 00:00:00,Whistlestop Strategies LLC,,,,100 Coastal Drive,Charleston,SC,29492,,-2928.0,,,,,,Mail production/postage,,,,,,,,,,,PM,,,,3,Support Ed Walker,Mail,2200,mail production/postage,N,,,,,,,,ED WALKER,HOUSE DISTRICT 52,REP,STATE REPRESENTATIVE DISTRICT 52
School Freedom Fund,expenditure,04/26/2026 to 05/24/2026,C6,2026-05-05 00:00:00,Whistlestop Strategies LLC,,,,100 Coastal Drive,Charleston,SC,29492,,-3662.0,,,,,,Mail production/postage,,,,,,,,,,,PM,,,,3,Support Barry Usher,Mail,4944,mail production/postage,N,,,,,,,,BARRY USHER,SENATE DISTRICT 19,REP,STATE SENATOR DISTRICT 19
School Freedom Fund,expenditure,04/26/2026 to 05/24/2026,C6,2026-05-01 00:00:00,Whistlestop Strategies LLC,,,,100 Coastal Drive,Charleston,SC,29492,,-3662.0,,,,,,Mail production/postage,,,,,,,,,,,PM,,,,3,Support Barry Usher,Mail,4944,mail production/postage,N,,,,,,,,BARRY USHER,SENATE DISTRICT 19,REP,STATE SENATOR DISTRICT 19
School Freedom Fund,expenditure,04/26/2026 to 05/24/2026,C6,2026-04-26 00:00:00,Whistlestop Strategies LLC,,,,100 Coastal Drive,Charleston,SC,29492,,-2310.0,,,,,,Mail production/postage,,,,,,,,,,,PM,,,,3,Support Trevor Funseth,Mail,2566,mail production/postage,N,,,,,,,,TREVOR P FUNSETH,HOUSE DISTRICT 21,REP,STATE REPRESENTATIVE DISTRICT 21
School Freedom Fund,expenditure,04/26/2026 to 05/24/2026,C6,2026-05-14 00:00:00,Whistlestop Strategies LLC,,,,100 Coastal Drive,Charleston,SC,29492,,-2928.0,,,,,,Mail production/postage,,,,,,,,,,,PM,,,,3,Support Ed Walker,Mail,2200,mail production/postage,N,,,,,,,,ED WALKER,HOUSE DISTRICT 52,REP,STATE REPRESENTATIVE DISTRICT 52
School Freedom Fund,expenditure,04/26/2026 to 05/24/2026,C6,2026-05-19 00:00:00,Darby House LLC,,,,"4201 Wilson Blvd, Suite 110-126",Arlington,VA,22203,,-2500.0,,,,,,Digital Ad Production,,,,,,,,,,,PM,,,,3,Support Barry Usher,digital,,digital ad production,N,,,,,,,,BARRY USHER,SENATE DISTRICT 19,REP,STATE SENATOR DISTRICT 19
School Freedom Fund,expenditure,04/26/2026 to 05/24/2026,C6,2026-05-19 00:00:00,Darby House LLC,,,,"4201 Wilson Blvd, Suite 110-126",Arlington,VA,22203,,-2500.0,,,,,,Digital Ad Production,,,,,,,,,,,PM,,,,3,Support Ken Allen,digital,,digital ad production,N,,,,,,,,KENNETH E ALLEN,HOUSE DISTRICT 86,REP,STATE REPRESENTATIVE DISTRICT 86
School Freedom Fund,expenditure,04/26/2026 to 05/24/2026,C6,2026-05-19 00:00:00,Darby House LLC,,,,"4201 Wilson Blvd, Suite 110-126",Arlington,VA,22203,,-2500.0,,,,,,Digital Ad Production,,,,,,,,,,,PM,,,,3,Support Jed Hinkle,Digital,,digital ad production,N,,,,,,,,JEDEDIAH HINKLE,HOUSE DISTRICT 67,REP,STATE REPRESENTATIVE DISTRICT 67
School Freedom Fund,expenditure,04/26/2026 to 05/24/2026,C6,2026-05-19 00:00:00,Darby House LLC,,,,"4201 Wilson Blvd, Suite 110-126",Arlington,VA,22203,,-2500.0,,,,,,Digital Ad Production,,,,,,,,,,,PM,,,,3,Support Ed Walker,digital,,digital ad production,N,,,,,,,,ED WALKER,HOUSE DISTRICT 52,REP,STATE REPRESENTATIVE DISTRICT 52
School Freedom Fund,expenditure,04/26/2026 to 05/24/2026,C6,2026-05-19 00:00:00,Darby House LLC,,,,"4201 Wilson Blvd, Suite 110-126",Arlington,VA,22203,,-2500.0,,,,,,Digital Ad Production,,,,,,,,,,,PM,,,,3,Support Trevor Funseth,digital,,digital ad production,N,,,,,,,,TREVOR P FUNSETH,HOUSE DISTRICT 21,REP,STATE REPRESENTATIVE DISTRICT 21
School Freedom Fund,expenditure,04/26/2026 to 05/24/2026,C6,2026-05-19 00:00:00,Darby House LLC,,,,"4201 Wilson Blvd, Suite 110-126",Arlington,VA,22203,,-2500.0,,,,,,Digital Ad Production,,,,,,,,,,,PM,,,,3,Support Steve LaPraim,digital,,digital ad production,N,,,,,,,,STEPHEN LAPRAIM,SENATE DISTRICT 42,REP,STATE SENATOR DISTRICT 42
School Freedom Fund,expenditure,04/26/2026 to 05/24/2026,C6,2026-05-19 00:00:00,Darby House LLC,,,,"4201 Wilson Blvd, Suite 110-126",Arlington,VA,22203,,-2500.0,,,,,,Digital Ad Production,,,,,,,,,,,PM,,,,3,Support Caleb Hinkle,digital,,digital ad production,N,,,,,,,,CALEB HINKLE,SENATE DISTRICT 34,REP,STATE SENATOR DISTRICT 34
School Freedom Fund,expenditure,04/26/2026 to 05/24/2026,C6,2026-05-19 00:00:00,Darby House LLC,,,,"4201 Wilson Blvd, Suite 110-126",Arlington,VA,22203,,-2500.0,,,,,,Digital Ad Production,,,,,,,,,,,PM,,,,3,Support Greg Kmetz,digital,,digital ad production,N,,,,,,,,GREG KMETZ,SENATE DISTRICT 18,REP,STATE SENATOR DISTRICT 18
School Freedom Fund,expenditure,04/26/2026 to 05/24/2026,C6,2026-05-19 00:00:00,Darby House LLC,,,,"4201 Wilson Blvd, Suite 110-126",Arlington,VA,22203,,-2500.0,,,,,,Digital Ad Production,,,,,,,,,,,PM,,,,3,Oppose John Fitzpatrick,digital,,digital ad production,N,,,,,,,,JOHN FITZPATRICK,HOUSE DISTRICT 76,REP,STATE REPRESENTATIVE DISTRICT 76
School Freedom Fund,expenditure,04/26/2026 to 05/24/2026,C6,2026-05-19 00:00:00,Darby House LLC,,,,"4201 Wilson Blvd, Suite 110-126",Arlington,VA,22203,,-2500.0,,,,,,Digital Ad Production,,,,,,,,,,,PM,,,,3,Oppose George Nikolakakos,digital,,digital ad production,N,,,,,,,,GEORGE NIKOLAKAKOS,SENATE DISTRICT 12,REP,STATE SENATOR DISTRICT 12
School Freedom Fund,expenditure,04/26/2026 to 05/24/2026,C6,2026-05-19 00:00:00,Darby House LLC,,,,"4201 Wilson Blvd, Suite 110-126",Arlington,VA,22203,,-2500.0,,,,,,Digital Ad Production,,,,,,,,,,,PM,,,,3,Oppose Shelley Vance,digital,,digital ad production,N,,,,,,,,SHELLEY VANCE,SENATE DISTRICT 34,REP,STATE SENATOR DISTRICT 34
School Freedom Fund,expenditure,04/26/2026 to 05/24/2026,C6,2026-05-19 00:00:00,Darby House LLC,,,,"4201 Wilson Blvd, Suite 110-126",Arlington,VA,22203,,-2500.0,,,,,,Digital Ad Production,,,,,,,,,,,PM,,,,3,Oppose Curtis Cochran,digital,,digital ad production,N,,,,,,,,CURTIS J COCHRAN,HOUSE DISTRICT 90,REP,STATE REPRESENTATIVE DISTRICT 90
School Freedom Fund,expenditure,04/26/2026 to 05/24/2026,C6,2026-05-19 00:00:00,Darby House LLC,,,,"4201 Wilson Blvd, Suite 110-126",Arlington,VA,22203,,-2500.0,,,,,,Digital Ad Production,,,,,,,,,,,PM,,,,3,Oppose Brad Barker,digital,,digital ad production,N,,,,,,,,BRAD BARKER,HOUSE DISTRICT 55,REP,STATE REPRESENTATIVE DISTRICT 55
School Freedom Fund,expenditure,04/26/2026 to 05/24/2026,C6,2026-05-19 00:00:00,Darby House LLC,,,,"4201 Wilson Blvd, Suite 110-126",Arlington,VA,22203,,-2500.0,,,,,,Digital Ad Production,,,,,,,,,,,PM,,,,3,Oppose Ken Walsh,digital,,digital ad production,N,,,,,,,,KEN WALSH,HOUSE DISTRICT 69,REP,STATE REPRESENTATIVE DISTRICT 69
School Freedom Fund,expenditure,04/26/2026 to 05/24/2026,C6,2026-04-26 00:00:00,Google,,,,1600 Amphitheatre Parkway,Mountain View,CA,94043,,-5000.0,,,,,,Online Advertising,,,,,,,,,,,PM,,,,3,Oppose Curtis Cochran,Google,,online advertising,N,,,,,,,,CURTIS J COCHRAN,HOUSE DISTRICT 90,REP,STATE REPRESENTATIVE DISTRICT 90
School Freedom Fund,expenditure,04/26/2026 to 05/24/2026,C6,2026-04-26 00:00:00,Google,,,,1600 Amphitheatre Parkway,Mountain View,CA,94043,,-1525.0,,,,,,Online Advertising,,,,,,,,,,,PM,,,,3,Support Ken Allen,Google,,online advertising,N,,,,,,,,KENNETH E ALLEN,HOUSE DISTRICT 86,REP,STATE REPRESENTATIVE DISTRICT 86
School Freedom Fund,expenditure,04/26/2026 to 05/24/2026,C6,2026-04-26 00:00:00,Google,,,,1600 Amphitheatre Parkway,Mountain View,CA,94043,,-3400.0,,,,,,Online Advertising,,,,,,,,,,,PM,,,,3,Oppose John Fitzpatrick,Google,,online advertising,N,,,,,,,,JOHN FITZPATRICK,HOUSE DISTRICT 76,REP,STATE REPRESENTATIVE DISTRICT 76
School Freedom Fund,expenditure,04/26/2026 to 05/24/2026,C6,2026-04-26 00:00:00,Google,,,,1600 Amphitheatre Parkway,Mountain View,CA,94043,,-1000.0,,,,,,Online Advertising,,,,,,,,,,,PM,,,,3,Oppose Ken Walsh,Google,,online advertising ,N,,,,,,,,KEN WALSH,HOUSE DISTRICT 69,REP,STATE REPRESENTATIVE DISTRICT 69
School Freedom Fund,expenditure,04/26/2026 to 05/24/2026,C6,2026-04-26 00:00:00,Google,,,,1600 Amphitheatre Parkway,Mountain View,CA,94043,,-228.0,,,,,,Online Advertising,,,,,,,,,,,PM,,,,3,Support Jed Hinkle,Google,,online advertising,N,,,,,,,,JEDEDIAH HINKLE,HOUSE DISTRICT 67,REP,STATE REPRESENTATIVE DISTRICT 67
School Freedom Fund,expenditure,04/26/2026 to 05/24/2026,C6,2026-04-26 00:00:00,Google,,,,1600 Amphitheatre Parkway,Mountain View,CA,94043,,-1900.0,,,,,,Online Advertising,,,,,,,,,,,PM,,,,3,Oppose Brad Barker,Google,,online advertising ,N,,,,,,,,BRAD BARKER,HOUSE DISTRICT 55,REP,STATE REPRESENTATIVE DISTRICT 55
School Freedom Fund,expenditure,04/26/2026 to 05/24/2026,C6,2026-04-26 00:00:00,Google,,,,1600 Amphitheatre Parkway,Mountain View,CA,94043,,-13450.0,,,,,,Online Advertising,,,,,,,,,,,PM,,,,3,Support Ed Walker,Google,,online advertising,N,,,,,,,,ED WALKER,HOUSE DISTRICT 52,REP,STATE REPRESENTATIVE DISTRICT 52
School Freedom Fund,expenditure,04/26/2026 to 05/24/2026,C6,2026-04-26 00:00:00,Google,,,,1600 Amphitheatre Parkway,Mountain View,CA,94043,,-7500.0,,,,,,Online Advertising,,,,,,,,,,,PM,,,,3,Oppose Valerie Moore,Google,,online advertising,N,,,,,,,,VALERIE MOORE,HOUSE DISTRICT 29,REP,STATE REPRESENTATIVE DISTRICT 29
School Freedom Fund,expenditure,04/26/2026 to 05/24/2026,C6,2026-04-26 00:00:00,Google,,,,1600 Amphitheatre Parkway,Mountain View,CA,94043,,-400.0,,,,,,Online Advertising,,,,,,,,,,,PM,,,,3,Support Trevor Funseth,Google,,online advertising,N,,,,,,,,TREVOR P FUNSETH,HOUSE DISTRICT 21,REP,STATE REPRESENTATIVE DISTRICT 21
School Freedom Fund,expenditure,04/26/2026 to 05/24/2026,C6,2026-04-26 00:00:00,Google,,,,1600 Amphitheatre Parkway,Mountain View,CA,94043,,-4500.0,,,,,,Online Advertising,,,,,,,,,,,PM,,,,3,Oppose Susan Geise,google,,online advertising,N,,,,,,,,SUSAN GEISE,HOUSE DISTRICT 17,REP,STATE REPRESENTATIVE DISTRICT 17
School Freedom Fund,expenditure,04/26/2026 to 05/24/2026,C6,2026-04-26 00:00:00,Google,,,,1600 Amphitheatre Parkway,Mountain View,CA,94043,,-10950.0,,,,,,Online Advertising,,,,,,,,,,,PM,,,,3,Support Steve LaPraim,google,,online advertising,N,,,,,,,,STEPHEN LAPRAIM,SENATE DISTRICT 42,REP,STATE SENATOR DISTRICT 42
School Freedom Fund,expenditure,04/26/2026 to 05/24/2026,C6,2026-04-26 00:00:00,Google,,,,1600 Amphitheatre Parkway,Mountain View,CA,94043,,-8310.0,,,,,,Online Advertising,,,,,,,,,,,PM,,,,3,Oppose Shelley Vance,Google,,online advertising,N,,,,,,,,SHELLEY VANCE,SENATE DISTRICT 34,REP,STATE SENATOR DISTRICT 34
School Freedom Fund,expenditure,04/26/2026 to 05/24/2026,C6,2026-04-26 00:00:00,Google,,,,1600 Amphitheatre Parkway,Mountain View,CA,94043,,-10900.0,,,,,,Online Advertising,,,,,,,,,,,PM,,,,3,Support Caleb Hinkle,Google,,online advertising,N,,,,,,,,CALEB HINKLE,SENATE DISTRICT 34,REP,STATE SENATOR DISTRICT 34
School Freedom Fund,expenditure,04/26/2026 to 05/24/2026,C6,2026-04-26 00:00:00,Google,,,,1600 Amphitheatre Parkway,Mountain View,CA,94043,,-10550.0,,,,,,Online Advertising,,,,,,,,,,,PM,,,,3,Support Barry Usher,Google,,online advertising,N,,,,,,,,BARRY USHER,SENATE DISTRICT 19,REP,STATE SENATOR DISTRICT 19
School Freedom Fund,expenditure,04/26/2026 to 05/24/2026,C6,2026-04-26 00:00:00,Google,,,,1600 Amphitheatre Parkway,Mountain View,CA,94043,,-5150.0,,,,,,Online Advertising,,,,,,,,,,,PM,,,,3,Support Greg Kmetz,Google,,online advertising,N,,,,,,,,GREG KMETZ,SENATE DISTRICT 18,REP,STATE SENATOR DISTRICT 18
School Freedom Fund,expenditure,04/26/2026 to 05/24/2026,C6,2026-04-26 00:00:00,Google,,,,1600 Amphitheatre Parkway,Mountain View,CA,94043,,-8507.0,,,,,,Online Advertising,,,,,,,,,,,PM,,,,3,Oppose George Nikolakakos,Google,,online advertising,N,,,,,,,,GEORGE NIKOLAKAKOS,SENATE DISTRICT 12,REP,STATE SENATOR DISTRICT 12
School Freedom Fund,expenditure,04/26/2026 to 05/24/2026,C6,2026-04-26 00:00:00,i360,,,,"2300 Clarendon Blvd, Suite 800",Arlington,VA,22203,,-15.0,,,,,,Data,,,,,,,,,,,PM,,,,3,Oppose Curtis Cochran,,,Data,N,,,,,,,,CURTIS J COCHRAN,HOUSE DISTRICT 90,REP,STATE REPRESENTATIVE DISTRICT 90
School Freedom Fund,expenditure,04/26/2026 to 05/24/2026,C6,2026-04-26 00:00:00,i360,,,,"2300 Clarendon Blvd, Suite 800",Arlington,VA,22203,,-15.0,,,,,,Data,,,,,,,,,,,PM,,,,3,Support Ken Allen,,,Data,N,,,,,,,,KENNETH E ALLEN,HOUSE DISTRICT 86,REP,STATE REPRESENTATIVE DISTRICT 86
School Freedom Fund,expenditure,04/26/2026 to 05/24/2026,C6,2026-04-26 00:00:00,i360,,,,"2300 Clarendon Blvd, Suite 800",Arlington,VA,22203,,-25.0,,,,,,Data,,,,,,,,,,,PM,,,,3,Oppose John Fitzpatrick,,,data,N,,,,,,,,JOHN FITZPATRICK,HOUSE DISTRICT 76,REP,STATE REPRESENTATIVE DISTRICT 76
School Freedom Fund,expenditure,04/26/2026 to 05/24/2026,C6,2026-04-26 00:00:00,i360,,,,"2300 Clarendon Blvd, Suite 800",Arlington,VA,22203,,-25.0,,,,,,Data,,,,,,,,,,,PM,,,,3,Oppose Ken Walsh,,,Data,N,,,,,,,,KEN WALSH,HOUSE DISTRICT 69,REP,STATE REPRESENTATIVE DISTRICT 69
School Freedom Fund,expenditure,04/26/2026 to 05/24/2026,C6,2026-04-26 00:00:00,i360,,,,"2300 Clarendon Blvd, Suite 800",Arlington,VA,22203,,-15.0,,,,,,Data,,,,,,,,,,,PM,,,,3,Support Jed Hinkle,,,data,N,,,,,,,,JEDEDIAH HINKLE,HOUSE DISTRICT 67,REP,STATE REPRESENTATIVE DISTRICT 67
School Freedom Fund,expenditure,04/26/2026 to 05/24/2026,C6,2026-04-26 00:00:00,i360,,,,"2300 Clarendon Blvd, Suite 800",Arlington,VA,22203,,-25.0,,,,,,Data,,,,,,,,,,,PM,,,,3,Oppose Brad Barker,,,data,N,,,,,,,,BRAD BARKER,HOUSE DISTRICT 55,REP,STATE REPRESENTATIVE DISTRICT 55
School Freedom Fund,expenditure,04/26/2026 to 05/24/2026,C6,2026-04-26 00:00:00,i360,,,,"2300 Clarendon Blvd, Suite 800",Arlington,VA,22203,,-15.0,,,,,,Data,,,,,,,,,,,PM,,,,3,Support Ed Walker,,,data,N,,,,,,,,ED WALKER,HOUSE DISTRICT 52,REP,STATE REPRESENTATIVE DISTRICT 52
School Freedom Fund,expenditure,04/26/2026 to 05/24/2026,C6,2026-04-26 00:00:00,i360,,,,"2300 Clarendon Blvd, Suite 800",Arlington,VA,22203,,-25.0,,,,,,Data,,,,,,,,,,,PM,,,,3,Oppose Valerie Moore,,,data,N,,,,,,,,VALERIE MOORE,HOUSE DISTRICT 29,REP,STATE REPRESENTATIVE DISTRICT 29
School Freedom Fund,expenditure,04/26/2026 to 05/24/2026,C6,2026-04-26 00:00:00,i360,,,,"2300 Clarendon Blvd, Suite 800",Arlington,VA,22203,,-15.0,,,,,,Data,,,,,,,,,,,PM,,,,3,Support Trevor Funseth,,,Data,N,,,,,,,,TREVOR P FUNSETH,HOUSE DISTRICT 21,REP,STATE REPRESENTATIVE DISTRICT 21
School Freedom Fund,expenditure,04/26/2026 to 05/24/2026,C6,2026-04-26 00:00:00,i360,,,,"2300 Clarendon Blvd, Suite 800",Arlington,VA,22203,,-25.0,,,,,,Data,,,,,,,,,,,PM,,,,3,Oppose Susan Geise,,,data,N,,,,,,,,SUSAN GEISE,HOUSE DISTRICT 17,REP,STATE REPRESENTATIVE DISTRICT 17
School Freedom Fund,expenditure,04/26/2026 to 05/24/2026,C6,2026-04-26 00:00:00,i360,,,,"2300 Clarendon Blvd, Suite 800",Arlington,VA,22203,,-18.0,,,,,,Data,,,,,,,,,,,PM,,,,3,Support Steve LaPraim,,,data,N,,,,,,,,STEPHEN LAPRAIM,SENATE DISTRICT 42,REP,STATE SENATOR DISTRICT 42
School Freedom Fund,expenditure,04/26/2026 to 05/24/2026,C6,2026-04-26 00:00:00,i360,,,,"2300 Clarendon Blvd, Suite 800",Arlington,VA,22203,,-15.0,,,,,,Data,,,,,,,,,,,PM,,,,3,Support Caleb Hinkle,,,Data,N,,,,,,,,CALEB HINKLE,SENATE DISTRICT 34,REP,STATE SENATOR DISTRICT 34
School Freedom Fund,expenditure,04/26/2026 to 05/24/2026,C6,2026-04-26 00:00:00,i360,,,,"2300 Clarendon Blvd, Suite 800",Arlington,VA,22203,,-15.0,,,,,,Data,,,,,,,,,,,PM,,,,3,Support Barry Usher,,,data,N,,,,,,,,BARRY USHER,SENATE DISTRICT 19,REP,STATE SENATOR DISTRICT 19
School Freedom Fund,expenditure,04/26/2026 to 05/24/2026,C6,2026-04-26 00:00:00,i360,,,,"2300 Clarendon Blvd, Suite 800",Arlington,VA,22203,,-15.0,,,,,,Data,,,,,,,,,,,PM,,,,3,Support Greg Kmetz,,,data,N,,,,,,,,GREG KMETZ,SENATE DISTRICT 18,REP,STATE SENATOR DISTRICT 18
School Freedom Fund,expenditure,04/26/2026 to 05/24/2026,C6,2026-04-26 00:00:00,i360,,,,"2300 Clarendon Blvd, Suite 800",Arlington,VA,22201,,-25.0,,,,,,Data,,,,,,,,,,,PM,,,,3,Oppose George Nikolakakos,,,Data,N,,,,,,,,GEORGE NIKOLAKAKOS,SENATE DISTRICT 12,REP,STATE SENATOR DISTRICT 12
School Freedom Fund,expenditure,04/26/2026 to 05/24/2026,C6,2026-05-19 00:00:00,Whistlestop Strategies LLC,,,,100 Coastal Drive,Charleston,SC,29492,,-2433.0,,,,,,Mail production/postage,,,,,,,,,,,PM,,,,3,Support Jeff Staneky,Mail,2113,mail production/postage,N,,,,,,,,JEFF STANEK,HOUSE DISTRICT 90,REP,STATE REPRESENTATIVE DISTRICT 90
School Freedom Fund,expenditure,04/26/2026 to 05/24/2026,C6,2026-05-19 00:00:00,Whistlestop Strategies LLC,,,,100 Coastal Drive,Charleston,SC,29492,,-2385.0,,,,,,Mail production/postage,,,,,,,,,,,PM,,,,3,Support Ken Allen,Mail,2004,mail production/postage,N,,,,,,,,KENNETH E ALLEN,HOUSE DISTRICT 86,REP,STATE REPRESENTATIVE DISTRICT 86
School Freedom Fund,expenditure,04/26/2026 to 05/24/2026,C6,2026-05-19 00:00:00,Whistlestop Strategies LLC,,,,100 Coastal Drive,Charleston,SC,29492,,-2928.0,,,,,,Mail production/postage,,,,,,,,,,,PM,,,,3,Support Ed Walker,Mail,2200,mail production/postage,N,,,,,,,,ED WALKER,HOUSE DISTRICT 52,REP,STATE REPRESENTATIVE DISTRICT 52
School Freedom Fund,expenditure,04/26/2026 to 05/24/2026,C6,2026-05-19 00:00:00,Whistlestop Strategies LLC,,,,100 Coastal Drive,Charleston,SC,29492,,-2260.0,,,,,,Mail production/postage,,,,,,,,,,,PM,,,,3,Support Charlie Loveridge,Mail,1716,mail production/postage,N,,,,,,,,CHARLIE LOVERIDGE,HOUSE DISTRICT 49,REP,STATE REPRESENTATIVE DISTRICT 49
School Freedom Fund,expenditure,04/26/2026 to 05/24/2026,C6,2026-05-19 00:00:00,Whistlestop Strategies LLC,,,,100 Coastal Drive,Charleston,SC,29492,,-2337.0,,,,,,Mail production/postage,,,,,,,,,,,PM,,,,3,Support Mike Vinton,Mail,1893,mail production/postage,N,,,,,,,,MIKE VINTON,HOUSE DISTRICT 40,REP,STATE REPRESENTATIVE DISTRICT 40
School Freedom Fund,expenditure,04/26/2026 to 05/24/2026,C6,2026-05-19 00:00:00,Whistlestop Strategies LLC,,,,100 Coastal Drive,Charleston,SC,29492,,-2310.0,,,,,,Mail production/postage,,,,,,,,,,,PM,,,,3,Support Trevor Funseth,Mail,2566,mail production/postage,N,,,,,,,,TREVOR P FUNSETH,HOUSE DISTRICT 21,REP,STATE REPRESENTATIVE DISTRICT 21
School Freedom Fund,expenditure,04/26/2026 to 05/24/2026,C6,2026-05-19 00:00:00,Whistlestop Strategies LLC,,,,100 Coastal Drive,Charleston,SC,29492,,-2483.0,,,,,,Mail production/postage,,,,,,,,,,,PM,,,,3,Support Justin Cleveland,Mail,2229,mail production/postage,N,,,,,,,,JUSTIN W CLEVELAND,HOUSE DISTRICT 17,REP,STATE REPRESENTATIVE DISTRICT 17
School Freedom Fund,expenditure,04/26/2026 to 05/24/2026,C6,2026-05-19 00:00:00,Whistlestop Strategies LLC,,,,100 Coastal Drive,Charleston,SC,29492,,-2487.0,,,,,,Mail production/postage,,,,,,,,,,,PM,,,,3,Support Jim Riley,Mail,2469,mail production/postage,N,,,,,,,,JIM RILEY,HOUSE DISTRICT 6,REP,STATE REPRESENTATIVE DISTRICT 6
School Freedom Fund,expenditure,04/26/2026 to 05/24/2026,C6,2026-05-19 00:00:00,Whistlestop Strategies LLC,,,,100 Coastal Drive,Charleston,SC,29492,,-3281.0,,,,,,Mail production/postage,,,,,,,,,,,PM,,,,3,Support Steve LaPraim,mail,4066,mail production/postage,N,,,,,,,,STEPHEN LAPRAIM,SENATE DISTRICT 42,REP,STATE SENATOR DISTRICT 42
School Freedom Fund,expenditure,04/26/2026 to 05/24/2026,C6,2026-05-19 00:00:00,Whistlestop Strategies LLC,,,,100 Coastal Drive,Charleston,SC,29492,,-3315.0,,,,,,Mail production/postage,,,,,,,,,,,PM,,,,3,Support Greg Kmetz,Mail,4144,mail production/postage,N,,,,,,,,GREG KMETZ,SENATE DISTRICT 18,REP,STATE SENATOR DISTRICT 18
School Freedom Fund,expenditure,04/26/2026 to 05/24/2026,C6,2026-05-01 00:00:00,Whistlestop Strategies LLC,,,,100 Coastal Drive,Charleston,SC,22202,,-2433.0,,,,,,Mail production/postage,,,,,,,,,,,PM,,,,3,Oppose Curtis Cochran,mail,2113,mail production/postage,N,,,,,,,,CURTIS J COCHRAN,HOUSE DISTRICT 90,REP,STATE REPRESENTATIVE DISTRICT 90
School Freedom Fund,expenditure,04/26/2026 to 05/24/2026,C6,2026-05-01 00:00:00,Whistlestop Strategies LLC,,,,100 Coastal Drive,Charleston,SC,22202,,-2385.0,,,,,,Mail production/postage,,,,,,,,,,,PM,,,,3,Oppose Wayne Rusk,Mail,2004,mail production/postage,N,,,,,,,,WAYNE RUSK,HOUSE DISTRICT 86,REP,STATE REPRESENTATIVE DISTRICT 86
School Freedom Fund,expenditure,04/26/2026 to 05/24/2026,C6,2026-05-01 00:00:00,Whistlestop Strategies LLC,,,,100 Coastal Drive,Charleston,SC,22202,,-2555.0,,,,,,Mail production/postage,,,,,,,,,,,PM,,,,3,Oppose Ken Walsh,mail,2394,mail production/postage,N,,,,,,,,KEN WALSH,HOUSE DISTRICT 69,REP,STATE REPRESENTATIVE DISTRICT 69
School Freedom Fund,expenditure,04/26/2026 to 05/24/2026,C6,2026-05-01 00:00:00,Whistlestop Strategies LLC,,,,100 Coastal Drive,Charleston,SC,22202,,-2183.0,,,,,,Mail production/postage,,,,,,,,,,,PM,,,,3,Oppose Russ Nelson,mail,1537,mail production/postage,N,,,,,,,,RUSSELL C NELSON,HOUSE DISTRICT 67,REP,STATE REPRESENTATIVE DISTRICT 67
School Freedom Fund,expenditure,04/26/2026 to 05/24/2026,C6,2026-05-01 00:00:00,Whistlestop Strategies LLC,,,,100 Coastal Drive,Charleston,SC,22202,,-2552.0,,,,,,Mail production/postage,,,,,,,,,,,PM,,,,3,Oppose Brad Barker,Mail,2387,mail production/postage,N,,,,,,,,BRAD BARKER,HOUSE DISTRICT 55,REP,STATE REPRESENTATIVE DISTRICT 55
School Freedom Fund,expenditure,04/26/2026 to 05/24/2026,C6,2026-04-26 00:00:00,Drogin Group,,,,6705 W Hwy 290 Suite 50281,Austin,TX,78735,,-300.0,,,,,,website production/hosting,,,,,,,,,,,PM,,,,3,Oppose Curtis Cochran,online,,website production/hosting,N,,,,,,,,CURTIS J COCHRAN,HOUSE DISTRICT 90,REP,STATE REPRESENTATIVE DISTRICT 90
School Freedom Fund,expenditure,04/26/2026 to 05/24/2026,C6,2026-04-26 00:00:00,Drogin Group,,,,6705 W Hwy 290 Suite 50281,Austin,TX,78735,,-1800.0,,,,,,website production/hosting,,,,,,,,,,,PM,,,,3,Support Ken Allen,online,,website production/hosting,N,,,,,,,,KENNETH E ALLEN,HOUSE DISTRICT 86,REP,STATE REPRESENTATIVE DISTRICT 86
School Freedom Fund,expenditure,04/26/2026 to 05/24/2026,C6,2026-04-26 00:00:00,Drogin Group,,,,6705 W Hwy 290 Suite 50281,Austin,TX,78735,,-300.0,,,,,,website production/hosting,,,,,,,,,,,PM,,,,3,Oppose John Fitzpatrick,online,,website production/hosting,N,,,,,,,,JOHN FITZPATRICK,HOUSE DISTRICT 76,REP,STATE REPRESENTATIVE DISTRICT 76
School Freedom Fund,expenditure,04/26/2026 to 05/24/2026,C6,2026-04-26 00:00:00,Drogin Group,,,,6705 W Hwy 290 Suite 50281,Austin,TX,78735,,-300.0,,,,,,website production/hosting,,,,,,,,,,,PM,,,,3,Oppose Ken Walsh,online,,website production/hosting,N,,,,,,,,KEN WALSH,HOUSE DISTRICT 69,REP,STATE REPRESENTATIVE DISTRICT 69
School Freedom Fund,expenditure,04/26/2026 to 05/24/2026,C6,2026-04-26 00:00:00,Drogin Group,,,,6705 W Hwy 290 Suite 50281,Austin,TX,78735,,-1800.0,,,,,,website production/hosting,,,,,,,,,,,PM,,,,3,Support Jed Hinkle,online,,website production/hosting,N,,,,,,,,JEDEDIAH HINKLE,HOUSE DISTRICT 67,REP,STATE REPRESENTATIVE DISTRICT 67
School Freedom Fund,expenditure,04/26/2026 to 05/24/2026,C6,2026-04-26 00:00:00,Drogin Group,,,,6705 W Hwy 290 Suite 50281,Austin,TX,78735,,-300.0,,,,,,website production/hosting,,,,,,,,,,,PM,,,,3,Oppose Brad Barker,online,,website production/hosting,N,,,,,,,,BRAD BARKER,HOUSE DISTRICT 55,REP,STATE REPRESENTATIVE DISTRICT 55
School Freedom Fund,expenditure,04/26/2026 to 05/24/2026,C6,2026-04-26 00:00:00,Drogin Group,,,,6705 W Hwy 290 Suite 50281,Austin,TX,78735,,-1800.0,,,,,,website production/hosting,,,,,,,,,,,PM,,,,3,Support Edward Walker,online,,website production/hosting,N,,,,,,,,ED WALKER,HOUSE DISTRICT 52,REP,STATE REPRESENTATIVE DISTRICT 52
School Freedom Fund,expenditure,04/26/2026 to 05/24/2026,C6,2026-04-26 00:00:00,Hulu,,,,2450 Colorado Ave,Santa Monica,CA,90404,,-363.37,,,,,,Digital Advertising,,,,,,,,,,,PM,,,,3,Oppose John Fitzpatrick,Hulu,,digital advertising,N,,,,,,,,JOHN FITZPATRICK,HOUSE DISTRICT 76,REP,STATE REPRESENTATIVE DISTRICT 76
School Freedom Fund,expenditure,04/26/2026 to 05/24/2026,C6,2026-04-26 00:00:00,Hulu,,,,2450 Colorado Ave,Santa Monica,CA,90404,,-706.64,,,,,,Digital Advertising,,,,,,,,,,,PM,,,,3,Oppose Ken Walsh,Hulu,,digital advertising,N,,,,,,,,KEN WALSH,HOUSE DISTRICT 69,REP,STATE REPRESENTATIVE DISTRICT 69
School Freedom Fund,expenditure,04/26/2026 to 05/24/2026,C6,2026-04-26 00:00:00,Hulu,,,,2450 Colorado Ave,Santa Monica,CA,90404,,-1549.04,,,,,,Digital Advertising,,,,,,,,,,,PM,,,,3,Support Jed Hinkle,Hulu,,digital advertising,N,,,,,,,,JEDEDIAH HINKLE,HOUSE DISTRICT 67,REP,STATE REPRESENTATIVE DISTRICT 67
School Freedom Fund,expenditure,04/26/2026 to 05/24/2026,C6,2026-04-26 00:00:00,Hulu,,,,2450 Colorado Ave,Santa Monica,CA,90404,,-118.58,,,,,,Digital Advertising,,,,,,,,,,,PM,,,,3,Oppose Brad Barker,Hulu,,digital advertising,N,,,,,,,,BRAD BARKER,HOUSE DISTRICT 55,REP,STATE REPRESENTATIVE DISTRICT 55
School Freedom Fund,expenditure,04/26/2026 to 05/24/2026,C6,2026-04-26 00:00:00,Hulu,,,,2450 Colorado Ave,Santa Monica,CA,90404,,-1151.23,,,,,,Digital Advertising,,,,,,,,,,,PM,,,,3,Oppose Valerie Moore,Hulu,,Digital advertising,N,,,,,,,,VALERIE MOORE,HOUSE DISTRICT 29,REP,STATE REPRESENTATIVE DISTRICT 29
School Freedom Fund,expenditure,04/26/2026 to 05/24/2026,C6,2026-04-26 00:00:00,Hulu,,,,2450 Colorado Ave,Santa Monica,CA,90404,,-2226.1,,,,,,Digital Advertising,,,,,,,,,,,PM,,,,3,Oppose Susan Geise,Hulu,,Digital advertising,N,,,,,,,,SUSAN GEISE,HOUSE DISTRICT 17,REP,STATE REPRESENTATIVE DISTRICT 17
School Freedom Fund,expenditure,04/26/2026 to 05/24/2026,C6,2026-04-26 00:00:00,Hulu,,,,2450 Colorado Ave,Santa Monica,CA,90404,,-2704.97,,,,,,Digital Advertising,,,,,,,,,,,PM,,,,3,Support Steve LaPraim,Hulu,,Digital advertising,N,,,,,,,,STEPHEN LAPRAIM,SENATE DISTRICT 42,REP,STATE SENATOR DISTRICT 42
School Freedom Fund,expenditure,04/26/2026 to 05/24/2026,C6,2026-04-26 00:00:00,Hulu,,,,2450 Colorado Ave,Santa Monica,CA,90404,,-6876.95,,,,,,Digital Advertising,,,,,,,,,,,PM,,,,3,Oppose George Nikolakakos,Hulu,,digital advertising,N,,,,,,,,GEORGE NIKOLAKAKOS,SENATE DISTRICT 12,REP,STATE SENATOR DISTRICT 12
School Freedom Fund,expenditure,04/26/2026 to 05/24/2026,C6,2026-04-26 00:00:00,Drogin Group,,,,6705 W Hwy 290 Suite 50281,Austin,TX,78735,,-300.0,,,,,,website production/hosting,,,,,,,,,,,PM,,,,3,Oppose Valerie Moore,online,,website production/hosting,N,,,,,,,,VALERIE MOORE,HOUSE DISTRICT 29,REP,STATE REPRESENTATIVE DISTRICT 29
School Freedom Fund,expenditure,04/26/2026 to 05/24/2026,C6,2026-04-26 00:00:00,Drogin Group,,,,6705 W Hwy 290 Suite 50281,Austin,TX,78735,,-1800.0,,,,,,website production/hosting,,,,,,,,,,,PM,,,,3,Support Trevor Funseth,online,,website production/hosting,N,,,,,,,,TREVOR P FUNSETH,HOUSE DISTRICT 21,REP,STATE REPRESENTATIVE DISTRICT 21
School Freedom Fund,expenditure,04/26/2026 to 05/24/2026,C6,2026-04-26 00:00:00,Drogin Group,,,,6705 W Hwy 290 Suite 50281,Austin,TX,78735,,-300.0,,,,,,website production/hosting,,,,,,,,,,,PM,,,,3,Oppose Susan Geise,online,,website production/hosting,N,,,,,,,,SUSAN GEISE,HOUSE DISTRICT 17,REP,STATE REPRESENTATIVE DISTRICT 17
School Freedom Fund,expenditure,04/26/2026 to 05/24/2026,C6,2026-04-26 00:00:00,Drogin Group,,,,6705 W Hwy 290 Suite 50281,Austin,TX,78735,,-1800.0,,,,,,website production/hosting,,,,,,,,,,,PM,,,,3,Support Steve LaPraim,online,,website production/hosting,N,,,,,,,,STEPHEN LAPRAIM,SENATE DISTRICT 42,REP,STATE SENATOR DISTRICT 42
School Freedom Fund,expenditure,04/26/2026 to 05/24/2026,C6,2026-04-26 00:00:00,Drogin Group,,,,6705 W Hwy 290 Suite 50281,Austin,TX,78735,,-1800.0,,,,,,website production/hosting,,,,,,,,,,,PM,,,,3,Oppose Shelley Vance,online,,website production/hosting,N,,,,,,,,SHELLEY VANCE,SENATE DISTRICT 34,REP,STATE SENATOR DISTRICT 34
School Freedom Fund,expenditure,04/26/2026 to 05/24/2026,C6,2026-04-26 00:00:00,Drogin Group,,,,6705 W Hwy 290 Suite 50281,Austin,TX,78735,,-1800.0,,,,,,website production/hosting,,,,,,,,,,,PM,,,,3,Support Caleb Hinkle,online,,website production/hosting,N,,,,,,,,CALEB HINKLE,SENATE DISTRICT 34,REP,STATE SENATOR DISTRICT 34
School Freedom Fund,expenditure,04/26/2026 to 05/24/2026,C6,2026-04-26 00:00:00,Drogin Group,,,,6705 W Hwy 290 Suite 50281,Austin,TX,78735,,-1800.0,,,,,,website production/hosting,,,,,,,,,,,PM,,,,3,Support Barry Usher,online,,website production/hosting,N,,,,,,,,BARRY USHER,SENATE DISTRICT 19,REP,STATE SENATOR DISTRICT 19
School Freedom Fund,expenditure,04/26/2026 to 05/24/2026,C6,2026-04-26 00:00:00,Drogin Group,,,,6705 W Hwy 290 Suite 50281,Austin,TX,78735,,-1800.0,,,,,,website production/hosting,,,,,,,,,,,PM,,,,3,Support Greg Kmetz,online,,website production/hosting,N,,,,,,,,GREG KMETZ,SENATE DISTRICT 18,REP,STATE SENATOR DISTRICT 18
School Freedom Fund,expenditure,04/26/2026 to 05/24/2026,C6,2026-04-26 00:00:00,Drogin Group,,,,6705 W Hwy 290 Suite 50281,Austin,TX,78735,,-1800.0,,,,,,website production/hosting,,,,,,,,,,,PM,,,,3,Oppose George Nikolakakos,online,,website production/hosting,N,,,,,,,,GEORGE NIKOLAKAKOS,SENATE DISTRICT 12,REP,STATE SENATOR DISTRICT 12
School Freedom Fund,expenditure,04/26/2026 to 05/24/2026,C6,2026-05-21 00:00:00,Wise Digital Strategies,,,,27122 Sable Oaks Lane,Houston,TX,77433,,-5000.0,,,,,,Digital Advertising,,,,,,,,,,,PM,,,,3,Oppose John Fitzpatrick,Online,,Digital Advertising,N,,,,,,,,JOHN FITZPATRICK,HOUSE DISTRICT 76,REP,STATE REPRESENTATIVE DISTRICT 76
School Freedom Fund,expenditure,04/26/2026 to 05/24/2026,C6,2026-05-21 00:00:00,Wise Digital Strategies,,,,27122 Sable Oaks Lane,Houston,TX,77433,,-5000.0,,,,,,Digital Advertising,,,,,,,,,,,PM,,,,3,Oppose Curtis Cochran,online,,Digital Advertising,N,,,,,,,,CURTIS J COCHRAN,HOUSE DISTRICT 90,REP,STATE REPRESENTATIVE DISTRICT 90
School Freedom Fund,expenditure,04/26/2026 to 05/24/2026,C6,2026-05-21 00:00:00,Wise Digital Strategies,,,,27122 Sable Oaks Lane,Houston,TX,77433,,-5000.0,,,,,,Digital Advertising,,,,,,,,,,,PM,,,,3,Oppose Shelley Vance,online,,digital advertising,N,,,,,,,,SHELLEY VANCE,SENATE DISTRICT 34,REP,STATE SENATOR DISTRICT 34
School Freedom Fund,expenditure,04/26/2026 to 05/24/2026,C6,2026-05-21 00:00:00,Wise Digital Strategies,,,,27122 Sable Oaks Lane,Houston,TX,77433,,-5000.0,,,,,,Digital Advertising,,,,,,,,,,,PM,,,,3,Oppose Susan Geise,online,,Digital advertising,N,,,,,,,,SUSAN GEISE,HOUSE DISTRICT 17,REP,STATE REPRESENTATIVE DISTRICT 17
School Freedom Fund,expenditure,04/26/2026 to 05/24/2026,C6,2026-05-19 00:00:00,Darby House LLC,,,,"4201 Wilson Blvd, Suite 110-126",Arlington,VA,22203,,-2500.0,,,,,,Digital Ad Production,,,,,,,,,,,PM,,,,3,Oppose Susan Geise,Digital,,digital ad production,N,,,,,,,,SUSAN GEISE,HOUSE DISTRICT 17,REP,STATE REPRESENTATIVE DISTRICT 17
School Freedom Fund,expenditure,04/26/2026 to 05/24/2026,C6,2026-05-10 00:00:00,Whistlestop Strategies LLC,,,,100 Coastal Drive,Charleston,SC,29492,,-2424.0,,,,,,Mail production/postage,,,,,,,,,,,PM,,,,3,Oppose Chisholm Christensen,mail,2092,mail production/postage,N,,,,,,,,CHISHOLM B CHRISTENSEN,HOUSE DISTRICT 28,REP,STATE REPRESENTATIVE DISTRICT 28
School Freedom Fund,expenditure,04/26/2026 to 05/24/2026,C6,2026-05-10 00:00:00,Whistlestop Strategies LLC,,,,100 Coastal Drive,Charleston,SC,29492,,-2424.0,,,,,,Mail production/postage,,,,,,,,,,,PM,,,,3,Oppose Chisholm Christensen,mail,2092,mail production/postage,N,,,,,,,,CHISHOLM B CHRISTENSEN,HOUSE DISTRICT 28,REP,STATE REPRESENTATIVE DISTRICT 28
School Freedom Fund,expenditure,04/26/2026 to 05/24/2026,C6,2026-05-10 00:00:00,Whistlestop Strategies LLC,,,,100 Coastal Drive,Charleston,SC,29492,,-2433.0,,,,,,Mail production/postage,,,,,,,,,,,PM,,,,3,Oppose Curtis Cochran,Mail,2113,mail production/postage,N,,,,,,,,CURTIS J COCHRAN,HOUSE DISTRICT 90,REP,STATE REPRESENTATIVE DISTRICT 90
School Freedom Fund,expenditure,04/26/2026 to 05/24/2026,C6,2026-05-10 00:00:00,Whistlestop Strategies LLC,,,,100 Coastal Drive,Charleston,SC,29492,,-2385.0,,,,,,Mail production/postage,,,,,,,,,,,PM,,,,3,Oppose Wayne Rusk,Mail,2004,mail production/postage,N,,,,,,,,WAYNE RUSK,HOUSE DISTRICT 86,REP,STATE REPRESENTATIVE DISTRICT 86
School Freedom Fund,expenditure,04/26/2026 to 05/24/2026,C6,2026-05-10 00:00:00,Whistlestop Strategies LLC,,,,100 Coastal Drive,Charleston,SC,29492,,-2555.0,,,,,,Mail production/postage,,,,,,,,,,,PM,,,,3,Oppose Ken Walsh,Mail,2394,mail production/postage,N,,,,,,,,KEN WALSH,HOUSE DISTRICT 69,REP,STATE REPRESENTATIVE DISTRICT 69
School Freedom Fund,expenditure,04/26/2026 to 05/24/2026,C6,2026-05-10 00:00:00,Whistlestop Strategies LLC,,,,100 Coastal Drive,Charleston,SC,29492,,-2183.0,,,,,,Mail production/postage,,,,,,,,,,,PM,,,,3,Oppose Russ Nelson,Mail,1537,mail production/postage,N,,,,,,,,RUSSELL C NELSON,HOUSE DISTRICT 67,REP,STATE REPRESENTATIVE DISTRICT 67
School Freedom Fund,expenditure,04/26/2026 to 05/24/2026,C6,2026-05-10 00:00:00,Whistlestop Strategies LLC,,,,100 Coastal Drive,Charleston,SC,29492,,-2552.0,,,,,,Mail production/postage,,,,,,,,,,,PM,,,,3,Oppose Brad Barker,Mail,2387,mail production/postage,N,,,,,,,,BRAD BARKER,HOUSE DISTRICT 55,REP,STATE REPRESENTATIVE DISTRICT 55
School Freedom Fund,expenditure,04/26/2026 to 05/24/2026,C6,2026-05-10 00:00:00,Whistlestop Strategies LLC,,,,100 Coastal Drive,Charleston,SC,29492,,-2626.0,,,,,,Mail production/postage,,,,,,,,,,,PM,,,,3,Oppose Jason Ellsworth,mail,2557,mail production/postage,N,,,,,,,,JASON ELLSWORTH,HOUSE DISTRICT 34,REP,STATE REPRESENTATIVE DISTRICT 34
School Freedom Fund,expenditure,04/26/2026 to 05/24/2026,C6,2026-05-10 00:00:00,Whistlestop Strategies LLC,,,,100 Coastal Drive,Charleston,SC,29492,,-2483.0,,,,,,Mail production/postage,,,,,,,,,,,PM,,,,3,Oppose Susan Geise,mail,2229,mail production/postage,N,,,,,,,,SUSAN GEISE,HOUSE DISTRICT 17,REP,STATE REPRESENTATIVE DISTRICT 17
School Freedom Fund,expenditure,04/26/2026 to 05/24/2026,C6,2026-05-10 00:00:00,Whistlestop Strategies LLC,,,,100 Coastal Drive,Charleston,SC,29492,,-3281.0,,,,,,Mail production/postage,,,,,,,,,,,PM,,,,3,Oppose Mike Talia,mail,4066,mail production/postage,N,,,,,,,,MIKE TALIA,SENATE DISTRICT 42,REP,STATE SENATOR DISTRICT 42
School Freedom Fund,expenditure,04/26/2026 to 05/24/2026,C6,2026-05-10 00:00:00,Whistlestop Strategies LLC,,,,100 Coastal Drive,Charleston,SC,29492,,-3315.0,,,,,,Mail production/postage,,,,,,,,,,,PM,,,,3,Oppose Doug Martens,mail,4144,mail production/postage,N,,,,,,,,DOUG MARTENS,SENATE DISTRICT 18,REP,STATE SENATOR DISTRICT 18
School Freedom Fund,expenditure,04/26/2026 to 05/24/2026,C6,2026-05-10 00:00:00,Whistlestop Strategies LLC,,,,100 Coastal Drive,Charleston,SC,29492,,-2974.0,,,,,,Mail production/postage,,,,,,,,,,,PM,,,,3,Oppose George Nikolakakos,mail,3360,mail production/postage,N,,,,,,,,GEORGE NIKOLAKAKOS,SENATE DISTRICT 12,REP,STATE SENATOR DISTRICT 12
School Freedom Fund,expenditure,04/26/2026 to 05/24/2026,C6,2026-05-21 00:00:00,Wise Digital Strategies,,,,27122 Sable Oaks Lane,Houston,TX,77433,,-5000.0,,,,,,Digital Advertising,,,,,,,,,,,PM,,,,3,Oppose George Nikolakakos,Online,,digital advertising,N,,,,,,,,GEORGE NIKOLAKAKOS,SENATE DISTRICT 12,REP,STATE SENATOR DISTRICT 12
School Freedom Fund,expenditure,04/26/2026 to 05/24/2026,C6,2026-05-19 00:00:00,Darby House LLC,,,,"4201 Wilson Blvd, Suite 110-126",Arlington,VA,22203,,-2500.0,,,,,,Digital Ad Production,,,,,,,,,,,PM,,,,3,Oppose Valerie Moore,digital,,digital ad production,N,,,,,,,,VALERIE MOORE,HOUSE DISTRICT 29,REP,STATE REPRESENTATIVE DISTRICT 29
School Freedom Fund,expenditure,04/26/2026 to 05/24/2026,C6,2026-04-26 00:00:00,Fox Television Stations LLC,,,,"1211 Avenue of the Americas, Suite 302",New York,NY,10036,,-4256.0,,,,,,Online Advertising,,,,,,,,,,,PM,,,,3,Oppose Curtis Cochran,Fox TV,,online advertising,N,,,,,,,,CURTIS J COCHRAN,HOUSE DISTRICT 90,REP,STATE REPRESENTATIVE DISTRICT 90
School Freedom Fund,expenditure,04/26/2026 to 05/24/2026,C6,2026-04-26 00:00:00,Fox Television Stations LLC,,,,"1211 Avenue of the Americas, Suite 302",New York,NY,10036,,-5242.0,,,,,,Online Advertising,,,,,,,,,,,PM,,,,3,Support Ken Allen,Fox TV,,online advertising,N,,,,,,,,KENNETH E ALLEN,HOUSE DISTRICT 86,REP,STATE REPRESENTATIVE DISTRICT 86
School Freedom Fund,expenditure,04/26/2026 to 05/24/2026,C6,2026-04-26 00:00:00,Fox Television Stations LLC,,,,"1211 Avenue of the Americas, Suite 302",New York,NY,10036,,-4030.0,,,,,,Online Advertising,,,,,,,,,,,PM,,,,3,Oppose John Fitzpatrick,Fox TV,,online advertising,N,,,,,,,,JOHN FITZPATRICK,HOUSE DISTRICT 76,REP,STATE REPRESENTATIVE DISTRICT 76
School Freedom Fund,expenditure,04/26/2026 to 05/24/2026,C6,2026-04-26 00:00:00,Fox Television Stations LLC,,,,"1211 Avenue of the Americas, Suite 302",New York,NY,10036,,-4558.0,,,,,,Online Advertising,,,,,,,,,,,PM,,,,3,Oppose Ken Walsh,Fox tV,,online advertising,N,,,,,,,,KEN WALSH,HOUSE DISTRICT 69,REP,STATE REPRESENTATIVE DISTRICT 69
School Freedom Fund,expenditure,04/26/2026 to 05/24/2026,C6,2026-04-26 00:00:00,Fox Television Stations LLC,,,,"1211 Avenue of the Americas, Suite 302",New York,NY,10036,,-4523.0,,,,,,Online Advertising,,,,,,,,,,,PM,,,,3,Support Jed Hinkle,Fox TV,,online advertising,N,,,,,,,,JEDEDIAH HINKLE,HOUSE DISTRICT 67,REP,STATE REPRESENTATIVE DISTRICT 67
School Freedom Fund,expenditure,04/26/2026 to 05/24/2026,C6,2026-04-26 00:00:00,Fox Television Stations LLC,,,,"1211 Avenue of the Americas, Suite 302",New York,NY,10036,,-4100.0,,,,,,Online Advertising,,,,,,,,,,,PM,,,,3,Oppose Brad Barker,Fox tV,,online advertising,N,,,,,,,,BRAD BARKER,HOUSE DISTRICT 55,REP,STATE REPRESENTATIVE DISTRICT 55
School Freedom Fund,expenditure,04/26/2026 to 05/24/2026,C6,2026-05-21 00:00:00,Whistlestop Strategies LLC,,,,"100 Coastal Drive, Suite 305",Charleston,SC,29492,,-2385.0,,,,,,Mail production/postage,,,,,,,,,,,PM,,,,3,Oppose Wayne Rusk,Mail,2004,mail production/postage,N,,,,,,,,WAYNE RUSK,HOUSE DISTRICT 86,REP,STATE REPRESENTATIVE DISTRICT 86
School Freedom Fund,expenditure,04/26/2026 to 05/24/2026,C6,2026-05-21 00:00:00,Whistlestop Strategies LLC,,,,"100 Coastal Drive, Suite 305",Charleston,SC,29492,,-2536.0,,,,,,Mail production/postage,,,,,,,,,,,PM,,,,3,Oppose John Fitzpatrick,Mail,2352,mail production/postage,N,,,,,,,,JOHN FITZPATRICK,HOUSE DISTRICT 76,REP,STATE REPRESENTATIVE DISTRICT 76
School Freedom Fund,expenditure,04/26/2026 to 05/24/2026,C6,2026-05-21 00:00:00,Whistlestop Strategies LLC,,,,"100 Coastal Drive, Suite 305",Charleston,SC,29492,,-2555.0,,,,,,Mail production/postage,,,,,,,,,,,PM,,,,3,Oppose Ken Walsh,Mail,2394,mail production/postage,N,,,,,,,,KEN WALSH,HOUSE DISTRICT 69,REP,STATE REPRESENTATIVE DISTRICT 69
School Freedom Fund,expenditure,04/26/2026 to 05/24/2026,C6,2026-05-21 00:00:00,Whistlestop Strategies LLC,,,,"100 Coastal Drive, Suite 305",Charleston,SC,29492,,-2555.0,,,,,,Mail production/postage,,,,,,,,,,,PM,,,,3,Oppose Ken Walsh,Mail,2394,mail production/postage,N,,,,,,,,KEN WALSH,HOUSE DISTRICT 69,REP,STATE REPRESENTATIVE DISTRICT 69
School Freedom Fund,expenditure,04/26/2026 to 05/24/2026,C6,2026-05-21 00:00:00,Whistlestop Strategies LLC,,,,"100 Coastal Drive, Suite 305",Charleston,SC,29492,,-1091.5,,,,,,Mail production/postage,,,,,,,,,,,PM,,,,3,Support Jed Hinkle,Mail,1537,mail production/postage,N,,,,,,,,JEDEDIAH HINKLE,HOUSE DISTRICT 67,REP,STATE REPRESENTATIVE DISTRICT 67
School Freedom Fund,expenditure,04/26/2026 to 05/24/2026,C6,2026-05-21 00:00:00,Whistlestop Strategies LLC,,,,"100 Coastal Drive, Suite 305",Charleston,SC,29492,,-1091.5,,,,,,Mail production/postage,,,,,,,,,,,PM,,,,3,Oppose Russ Nelson,Mail,1537,mail production/postage,N,,,,,,,,RUSSELL C NELSON,HOUSE DISTRICT 67,REP,STATE REPRESENTATIVE DISTRICT 67
School Freedom Fund,expenditure,04/26/2026 to 05/24/2026,C6,2026-05-21 00:00:00,Whistlestop Strategies LLC,,,,"100 Coastal Drive, Suite 305",Charleston,SC,29492,,-2183.0,,,,,,Mail production/postage,,,,,,,,,,,PM,,,,3,Oppose Russ Nelson,Mail,1537,mail production/postage,N,,,,,,,,RUSSELL C NELSON,HOUSE DISTRICT 67,REP,STATE REPRESENTATIVE DISTRICT 67
School Freedom Fund,expenditure,04/26/2026 to 05/24/2026,C6,2026-05-21 00:00:00,Whistlestop Strategies LLC,,,,"100 Coastal Drive, Suite 305",Charleston,SC,29492,,-2552.0,,,,,,Mail production/postage,,,,,,,,,,,PM,,,,3,Oppose Brad Barker,Mail,2387,mail production/postage,N,,,,,,,,BRAD BARKER,HOUSE DISTRICT 55,REP,STATE REPRESENTATIVE DISTRICT 55
School Freedom Fund,expenditure,04/26/2026 to 05/24/2026,C6,2026-05-21 00:00:00,Whistlestop Strategies LLC,,,,"100 Coastal Drive, Suite 305",Charleston,SC,29492,,-2483.0,,,,,,Mail production/postage,,,,,,,,,,,PM,,,,3,Oppose Troy Charbonneau,Mail,2230,mil production/postage,N,,,,,,,,TROY CHARBONNEAU,HOUSE DISTRICT 53,REP,STATE REPRESENTATIVE DISTRICT 53
School Freedom Fund,expenditure,04/26/2026 to 05/24/2026,C6,2026-05-21 00:00:00,Whistlestop Strategies LLC,,,,"100 Coastal Drive, Suite 305",Charleston,SC,29492,,-2928.0,,,,,,Mail production/postage,,,,,,,,,,,PM,,,,3,Oppose Stacy Zinn,Mail,2200,mail production/postage,N,,,,,,,,STACY ZINN,HOUSE DISTRICT 52,REP,STATE REPRESENTATIVE DISTRICT 52
School Freedom Fund,expenditure,04/26/2026 to 05/24/2026,C6,2026-05-21 00:00:00,Whistlestop Strategies LLC,,,,"100 Coastal Drive, Suite 305",Charleston,SC,29492,,-2260.0,,,,,,Mail production/postage,,,,,,,,,,,PM,,,,3,Oppose Ole Hedstrom,Mail,1716,mail production/postage,N,,,,,,,,OLE HEDSTROM,HOUSE DISTRICT 49,REP,STATE REPRESENTATIVE DISTRICT 49
School Freedom Fund,expenditure,04/26/2026 to 05/24/2026,C6,2026-05-21 00:00:00,Whistlestop Strategies LLC,,,,"100 Coastal Drive, Suite 305",Charleston,SC,29492,,-2626.0,,,,,,Mail production/postage,,,,,,,,,,,PM,,,,3,Oppose Jason Ellsworth,Mail,2557,mail production/postage,N,,,,,,,,JASON ELLSWORTH,HOUSE DISTRICT 34,REP,STATE REPRESENTATIVE DISTRICT 34
School Freedom Fund,expenditure,04/26/2026 to 05/24/2026,C6,2026-05-21 00:00:00,Whistlestop Strategies LLC,,,,"100 Coastal Drive, Suite 305",Charleston,SC,29492,,-2563.0,,,,,,Mail production/postage,,,,,,,,,,,PM,,,,3,Oppose Valerie Moore,Mail,2414,mail production/postage,N,,,,,,,,VALERIE MOORE,HOUSE DISTRICT 29,REP,STATE REPRESENTATIVE DISTRICT 29
School Freedom Fund,expenditure,04/26/2026 to 05/24/2026,C6,2026-05-21 00:00:00,Whistlestop Strategies LLC,,,,"100 Coastal Drive, Suite 305",Charleston,SC,29492,,-2310.0,,,,,,Mail production/postage,,,,,,,,,,,PM,,,,3,Oppose Eric Peterson,mail,2566,mail production/postage,N,,,,,,,,ERIC PETERSON,HOUSE DISTRICT 21,REP,STATE REPRESENTATIVE DISTRICT 21
School Freedom Fund,expenditure,04/26/2026 to 05/24/2026,C6,2026-05-21 00:00:00,Whistlestop Strategies LLC,,,,"100 Coastal Drive, Suite 305",Charleston,SC,29492,,-2536.0,,,,,,Mail production/postage,,,,,,,,,,,PM,,,,3,Oppose John Fitzpatrick,Mail,2352,mail production/postage,N,,,,,,,,JOHN FITZPATRICK,HOUSE DISTRICT 76,REP,STATE REPRESENTATIVE DISTRICT 76
School Freedom Fund,expenditure,04/26/2026 to 05/24/2026,C6,2026-05-14 00:00:00,Whistlestop Strategies LLC,,,,"100 Coastal Drive, Suite 305",Charleston,SC,29492,,-2536.0,,,,,,Mail production/postage,,,,,,,,,,,PM,,,,3,Oppose John Fitzpatrick,Mail,2352,Mail production/postage,N,,,,,,,,JOHN FITZPATRICK,HOUSE DISTRICT 76,REP,STATE REPRESENTATIVE DISTRICT 76
School Freedom Fund,expenditure,04/26/2026 to 05/24/2026,C6,2026-05-14 00:00:00,Whistlestop Strategies LLC,,,,"100 Coastal Drive, Suite 305",Charleston,SC,29492,,-2555.0,,,,,,Mail production/postage,,,,,,,,,,,PM,,,,3,Oppose Ken Walsh,Mail,2394,mail production/postage,N,,,,,,,,KEN WALSH,HOUSE DISTRICT 69,REP,STATE REPRESENTATIVE DISTRICT 69
School Freedom Fund,expenditure,04/26/2026 to 05/24/2026,C6,2026-05-14 00:00:00,Whistlestop Strategies LLC,,,,"100 Coastal Drive, Suite 305",Charleston,SC,29492,,-2183.0,,,,,,Mail production/postage,,,,,,,,,,,PM,,,,3,Oppose Russ Nelson,mail,1537,mail production/postage,N,,,,,,,,RUSSELL C NELSON,HOUSE DISTRICT 67,REP,STATE REPRESENTATIVE DISTRICT 67
School Freedom Fund,expenditure,04/26/2026 to 05/24/2026,C6,2026-05-14 00:00:00,Whistlestop Strategies LLC,,,,"100 Coastal Drive, Suite 305",Charleston,SC,29492,,-2552.0,,,,,,Mail production/postage,,,,,,,,,,,PM,,,,3,Oppose Brad Barker,Mail,2387,mail production/postage,N,,,,,,,,BRAD BARKER,HOUSE DISTRICT 55,REP,STATE REPRESENTATIVE DISTRICT 55
School Freedom Fund,expenditure,04/26/2026 to 05/24/2026,C6,2026-05-14 00:00:00,Whistlestop Strategies LLC,,,,"100 Coastal Drive, Suite 305",Charleston,SC,29492,,-2483.0,,,,,,Mail production/postage,,,,,,,,,,,PM,,,,3,Oppose Troy Charbonneau,Mail,2230,mail production/postage,N,,,,,,,,TROY CHARBONNEAU,HOUSE DISTRICT 53,REP,STATE REPRESENTATIVE DISTRICT 53
School Freedom Fund,expenditure,04/26/2026 to 05/24/2026,C6,2026-05-14 00:00:00,Whistlestop Strategies LLC,,,,"100 Coastal Drive, Suite 305",Charleston,SC,29492,,-2928.0,,,,,,Mail production/postage,,,,,,,,,,,PM,,,,3,Oppose Stacy Zinn,Mail,2200,mail production/postage,N,,,,,,,,STACY ZINN,HOUSE DISTRICT 52,REP,STATE REPRESENTATIVE DISTRICT 52
School Freedom Fund,expenditure,04/26/2026 to 05/24/2026,C6,2026-05-14 00:00:00,Whistlestop Strategies LLC,,,,"100 Coastal Drive, Suite 305",Charleston,SC,29492,,-2260.0,,,,,,Mail production/postage,,,,,,,,,,,PM,,,,3,Oppose Ole Hedstrom,Mail,1716,mail production/postage,N,,,,,,,,OLE HEDSTROM,HOUSE DISTRICT 49,REP,STATE REPRESENTATIVE DISTRICT 49
School Freedom Fund,expenditure,04/26/2026 to 05/24/2026,C6,2026-05-14 00:00:00,Whistlestop Strategies LLC,,,,"100 Coastal Drive, Suite 305",Charleston,SC,29492,,-2337.0,,,,,,Mail production/postage,,,,,,,,,,,PM,,,,3,Oppose Gunner Cessnik,Mail,1893,mail production/postage,N,,,,,,,,GUNNER CESNIK,HOUSE DISTRICT 40,REP,STATE REPRESENTATIVE DISTRICT 40
School Freedom Fund,expenditure,04/26/2026 to 05/24/2026,C6,2026-05-14 00:00:00,Whistlestop Strategies LLC,,,,"100 Coastal Drive, Suite 305",Charleston,SC,29492,,-2563.0,,,,,,Mail production/postage,,,,,,,,,,,PM,,,,3,Oppose Valerie Moore,Mail,2414,mail production/postage,N,,,,,,,,VALERIE MOORE,HOUSE DISTRICT 29,REP,STATE REPRESENTATIVE DISTRICT 29
School Freedom Fund,expenditure,04/26/2026 to 05/24/2026,C6,2026-05-14 00:00:00,Whistlestop Strategies LLC,,,,"100 Coastal Drive, Suite 305",Charleston,SC,29492,,-2310.0,,,,,,Mail production/postage,,,,,,,,,,,PM,,,,3,Oppose Eric Peterson,Mail,2566,mail production/postage,N,,,,,,,,ERIC PETERSON,HOUSE DISTRICT 21,REP,STATE REPRESENTATIVE DISTRICT 21
School Freedom Fund,expenditure,04/26/2026 to 05/24/2026,C6,2026-05-14 00:00:00,Whistlestop Strategies LLC,,,,"100 Coastal Drive, Suite 305",Charleston,SC,29492,,-2483.0,,,,,,Mail production/postage,,,,,,,,,,,PM,,,,3,Oppose Susan Geise,Mail,2229,mail production/postage,N,,,,,,,,SUSAN GEISE,HOUSE DISTRICT 17,REP,STATE REPRESENTATIVE DISTRICT 17
School Freedom Fund,expenditure,04/26/2026 to 05/24/2026,C6,2026-05-14 00:00:00,Whistlestop Strategies LLC,,,,"100 Coastal Drive, Suite 305",Charleston,SC,29492,,-3281.0,,,,,,Mail production/postage,,,,,,,,,,,PM,,,,3,Oppose Mike Talia,Mail,4066,mail production/postage,N,,,,,,,,MIKE TALIA,SENATE DISTRICT 42,REP,STATE SENATOR DISTRICT 42
School Freedom Fund,expenditure,04/26/2026 to 05/24/2026,C6,2026-05-14 00:00:00,Whistlestop Strategies LLC,,,,"100 Coastal Drive, Suite 305",Charleston,SC,29492,,-2995.0,,,,,,Mail production/postage,,,,,,,,,,,PM,,,,3,Oppose Shelley Vance,Mail,3407,mail production/postage,N,,,,,,,,SHELLEY VANCE,SENATE DISTRICT 34,REP,STATE SENATOR DISTRICT 34
School Freedom Fund,expenditure,04/26/2026 to 05/24/2026,C6,2026-05-14 00:00:00,Whistlestop Strategies LLC,,,,"100 Coastal Drive, Suite 305",Charleston,SC,29492,,-3662.0,,,,,,Mail production/postage,,,,,,,,,,,PM,,,,3,Oppose Chris Randal,mail,4944,mail production/postage,N,,,,,,,,CHRIS RINDAL,SENATE DISTRICT 19,REP,STATE SENATOR DISTRICT 19
School Freedom Fund,expenditure,04/26/2026 to 05/24/2026,C6,2026-05-14 00:00:00,Whistlestop Strategies LLC,,,,"100 Coastal Drive, Suite 305",Charleston,SC,29492,,-3315.0,,,,,,Mail production/postage,,,,,,,,,,,PM,,,,3,Oppose Doug Martens,Mail,4144,mail production/postage,N,,,,,,,,DOUG MARTENS,SENATE DISTRICT 18,REP,STATE SENATOR DISTRICT 18
School Freedom Fund,expenditure,04/26/2026 to 05/24/2026,C6,2026-05-14 00:00:00,Whistlestop Strategies LLC,,,,"100 Coastal Drive, Suite 305",Charleston,SC,29492,,-2974.0,,,,,,Mail production/postage,,,,,,,,,,,PM,,,,3,Oppose George Nikolakakos,Mail,3360,mail production/postage,N,,,,,,,,GEORGE NIKOLAKAKOS,SENATE DISTRICT 12,REP,STATE SENATOR DISTRICT 12
School Freedom Fund,expenditure,04/26/2026 to 05/24/2026,C6,2026-04-26 00:00:00,Meta,,,,1601 Willow Road,Menlo Park,CA,94025,,-500.0,,,,,,Digital Advertising,,,,,,,,,,,PM,,,,3,Oppose Curtis Cochran,Facebook,,Digital advertising,N,,,,,,,,CURTIS J COCHRAN,HOUSE DISTRICT 90,REP,STATE REPRESENTATIVE DISTRICT 90
School Freedom Fund,expenditure,04/26/2026 to 05/24/2026,C6,2026-04-26 00:00:00,Meta,,,,1601 Willow Road,Menlo Park,CA,94025,,-500.0,,,,,,Digital Advertising,,,,,,,,,,,PM,,,,3,Support Ken Allen,Facebook,,digital advertising,N,,,,,,,,KENNETH E ALLEN,HOUSE DISTRICT 86,REP,STATE REPRESENTATIVE DISTRICT 86
School Freedom Fund,expenditure,04/26/2026 to 05/24/2026,C6,2026-04-26 00:00:00,Meta,,,,1601 Willow Road,Menlo Park,CA,94025,,-3431.63,,,,,,Digital Advertising,,,,,,,,,,,PM,,,,3,Oppose John Fitzpatrick,Facebook,,digital advertising,N,,,,,,,,JOHN FITZPATRICK,HOUSE DISTRICT 76,REP,STATE REPRESENTATIVE DISTRICT 76
School Freedom Fund,expenditure,04/26/2026 to 05/24/2026,C6,2026-04-26 00:00:00,Meta,,,,1601 Willow Road,Menlo Park,CA,94025,,-3500.0,,,,,,Digital Advertising,,,,,,,,,,,PM,,,,3,Oppose Ken Walsh,Facebook,,digital advertising,N,,,,,,,,KEN WALSH,HOUSE DISTRICT 69,REP,STATE REPRESENTATIVE DISTRICT 69
School Freedom Fund,expenditure,04/26/2026 to 05/24/2026,C6,2026-04-26 00:00:00,Meta,,,,1601 Willow Road,Menlo Park,CA,94025,,-500.0,,,,,,Digital Advertising,,,,,,,,,,,PM,,,,3,Support Jed Hinkle,Facebook,,Digital advertising,N,,,,,,,,JEDEDIAH HINKLE,HOUSE DISTRICT 67,REP,STATE REPRESENTATIVE DISTRICT 67
School Freedom Fund,expenditure,04/26/2026 to 05/24/2026,C6,2026-04-26 00:00:00,Meta,,,,1601 Willow Road,Menlo Park,CA,94025,,-3500.0,,,,,,Digital Advertising,,,,,,,,,,,PM,,,,3,Oppose Brad Barker,Facebook,,digital advertising,N,,,,,,,,BRAD BARKER,HOUSE DISTRICT 55,REP,STATE REPRESENTATIVE DISTRICT 55
School Freedom Fund,expenditure,04/26/2026 to 05/24/2026,C6,2026-04-26 00:00:00,Meta,,,,1601 Willow Road,Menlo Park,CA,94025,,-500.0,,,,,,Digital Advertising,,,,,,,,,,,PM,,,,3,Support Ed Walker,Facebook,,Digital advertising,N,,,,,,,,ED WALKER,HOUSE DISTRICT 52,REP,STATE REPRESENTATIVE DISTRICT 52
School Freedom Fund,expenditure,04/26/2026 to 05/24/2026,C6,2026-04-26 00:00:00,Meta,,,,1601 Willow Road,Menlo Park,CA,94025,,-3000.0,,,,,,Digital Advertising,,,,,,,,,,,PM,,,,3,Oppose Susan Geise,Facebook,,digital advertising,N,,,,,,,,SUSAN GEISE,HOUSE DISTRICT 17,REP,STATE REPRESENTATIVE DISTRICT 17
School Freedom Fund,expenditure,04/26/2026 to 05/24/2026,C6,2026-04-26 00:00:00,Fox Television Stations LLC,,,,"1211 Avenue of the Americas, Suite 302",New York,NY,10036,,-5300.0,,,,,,Online Advertising,,,,,,,,,,,PM,,,,3,Support Edward Walker,Fox TV,,online advertising,N,,,,,,,,ED WALKER,HOUSE DISTRICT 52,REP,STATE REPRESENTATIVE DISTRICT 52
School Freedom Fund,expenditure,04/26/2026 to 05/24/2026,C6,2026-04-26 00:00:00,Fox Television Stations LLC,,,,"1211 Avenue of the Americas, Suite 302",New York,NY,10036,,-4167.0,,,,,,Online Advertising,,,,,,,,,,,PM,,,,3,Oppose Valerie Moore,Fox TV,,online advertising,N,,,,,,,,VALERIE MOORE,HOUSE DISTRICT 29,REP,STATE REPRESENTATIVE DISTRICT 29
School Freedom Fund,expenditure,04/26/2026 to 05/24/2026,C6,2026-04-26 00:00:00,Fox Television Stations LLC,,,,"1211 Avenue of the Americas, Suite 302",New York,NY,10036,,-4957.0,,,,,,Online Advertising,,,,,,,,,,,PM,,,,3,Support Trevor Funseth,Fox TV,,online advertising ,N,,,,,,,,TREVOR P FUNSETH,HOUSE DISTRICT 21,REP,STATE REPRESENTATIVE DISTRICT 21
School Freedom Fund,expenditure,04/26/2026 to 05/24/2026,C6,2026-04-26 00:00:00,Fox Television Stations LLC,,,,"1211 Avenue of the Americas, Suite 302",New York,NY,10036,,-4081.0,,,,,,Online Advertising,,,,,,,,,,,PM,,,,3,Oppose Susan Geise,Fox TV,,online advertising ,N,,,,,,,,SUSAN GEISE,HOUSE DISTRICT 17,REP,STATE REPRESENTATIVE DISTRICT 17
School Freedom Fund,expenditure,04/26/2026 to 05/24/2026,C6,2026-04-26 00:00:00,Fox Television Stations LLC,,,,"1211 Avenue of the Americas, Suite 302",New York,NY,10036,,-7845.0,,,,,,Online Advertising,,,,,,,,,,,PM,,,,3,Support Steve LaPraim,Fox TV,,online advertising ,N,,,,,,,,STEPHEN LAPRAIM,SENATE DISTRICT 42,REP,STATE SENATOR DISTRICT 42
School Freedom Fund,expenditure,04/26/2026 to 05/24/2026,C6,2026-04-26 00:00:00,Fox Television Stations LLC,,,,"1211 Avenue of the Americas, Suite 302",New York,NY,10036,,-6690.0,,,,,,Online Advertising,,,,,,,,,,,PM,,,,3,Oppose Shelley Vance,Fox TV,,online advertising,N,,,,,,,,SHELLEY VANCE,SENATE DISTRICT 34,REP,STATE SENATOR DISTRICT 34
School Freedom Fund,expenditure,04/26/2026 to 05/24/2026,C6,2026-04-26 00:00:00,Fox Television Stations LLC,,,,"1211 Avenue of the Americas, Suite 302",New York,NY,10036,,-6453.0,,,,,,Online Advertising,,,,,,,,,,,PM,,,,3,Support Caleb Hinkle,Fox Tv,,online advertising ,N,,,,,,,,CALEB HINKLE,SENATE DISTRICT 34,REP,STATE SENATOR DISTRICT 34
School Freedom Fund,expenditure,04/26/2026 to 05/24/2026,C6,2026-04-26 00:00:00,Fox Television Stations LLC,,,,"1211 Avenue of the Americas, Suite 302",New York,NY,10036,,-8200.0,,,,,,Online Advertising,,,,,,,,,,,PM,,,,3,Support Barry Usher,Fox TV,,online advertising ,N,,,,,,,,BARRY USHER,SENATE DISTRICT 19,REP,STATE SENATOR DISTRICT 19
School Freedom Fund,expenditure,04/26/2026 to 05/24/2026,C6,2026-04-26 00:00:00,Fox Television Stations LLC,,,,"1211 Avenue of the Americas, Suite 302",New York,NY,10036,,-7240.0,,,,,,Online Advertising,,,,,,,,,,,PM,,,,3,Support Greg Kmetz,Fox TV,,online advertising,N,,,,,,,,GREG KMETZ,SENATE DISTRICT 18,REP,STATE SENATOR DISTRICT 18
School Freedom Fund,expenditure,04/26/2026 to 05/24/2026,C6,2026-04-26 00:00:00,Fox Television Stations LLC,,,,"1211 Avenue of the Americas, Suite 302",New York,NY,10036,,-6366.0,,,,,,Online Advertising,,,,,,,,,,,PM,,,,3,Oppose George Nikolakakos,Fox TV,,online advertising,N,,,,,,,,GEORGE NIKOLAKAKOS,SENATE DISTRICT 12,REP,STATE SENATOR DISTRICT 12
School Freedom Fund,expenditure,04/26/2026 to 05/24/2026,C6,2026-04-26 00:00:00,Trade Desk,,,,"2710 Media Center Dr, Bldg 6",Los Angeles,CA,90065,,-14244.0,,,,,,Online Advertising,,,,,,,,,,,PM,,,,3,Oppose Curtis Cochran,online,,online advertising,N,,,,,,,,CURTIS J COCHRAN,HOUSE DISTRICT 90,REP,STATE REPRESENTATIVE DISTRICT 90
School Freedom Fund,expenditure,04/26/2026 to 05/24/2026,C6,2026-04-26 00:00:00,Trade Desk,,,,"2710 Media Center Dr, Bldg 6",Los Angeles,CA,90065,,-5733.0,,,,,,Online Advertising,,,,,,,,,,,PM,,,,3,Support Ken Allen,online,,online advertising,N,,,,,,,,KENNETH E ALLEN,HOUSE DISTRICT 86,REP,STATE REPRESENTATIVE DISTRICT 86
School Freedom Fund,expenditure,04/26/2026 to 05/24/2026,C6,2026-04-26 00:00:00,Trade Desk,,,,"2710 Media Center Dr, Bldg 6",Los Angeles,CA,90065,,-9700.0,,,,,,Online Advertising,,,,,,,,,,,PM,,,,3,Oppose John Fitzpatrick,online,,online advertising,N,,,,,,,,JOHN FITZPATRICK,HOUSE DISTRICT 76,REP,STATE REPRESENTATIVE DISTRICT 76
School Freedom Fund,expenditure,04/26/2026 to 05/24/2026,C6,2026-04-26 00:00:00,Trade Desk,,,,"2710 Media Center Dr, Bldg 6",Los Angeles,CA,90065,,-9660.36,,,,,,Online Advertising,,,,,,,,,,,PM,,,,3,Oppose Ken Walsh,online,,online advertising,N,,,,,,,,KEN WALSH,HOUSE DISTRICT 69,REP,STATE REPRESENTATIVE DISTRICT 69
School Freedom Fund,expenditure,04/26/2026 to 05/24/2026,C6,2026-04-26 00:00:00,Trade Desk,,,,"2710 Media Center Dr, Bldg 6",Los Angeles,CA,90065,,-6000.0,,,,,,Online Advertising,,,,,,,,,,,PM,,,,3,Support Jed Hinkle,online,,online advertising,N,,,,,,,,JEDEDIAH HINKLE,HOUSE DISTRICT 67,REP,STATE REPRESENTATIVE DISTRICT 67
School Freedom Fund,expenditure,04/26/2026 to 05/24/2026,C6,2026-04-26 00:00:00,Trade Desk,,,,"2710 Media Center Dr, Bldg 6",Los Angeles,CA,90065,,-9000.0,,,,,,Online Advertising,,,,,,,,,,,PM,,,,3,Oppose Brad Barker,online,,online advertising,N,,,,,,,,BRAD BARKER,HOUSE DISTRICT 55,REP,STATE REPRESENTATIVE DISTRICT 55
School Freedom Fund,expenditure,04/26/2026 to 05/24/2026,C6,2026-04-26 00:00:00,Trade Desk,,,,"2710 Media Center Dr, Bldg 6",Los Angeles,CA,90065,,-3250.0,,,,,,Online Advertising,,,,,,,,,,,PM,,,,3,Support Edward Walker,online,,online advertising,N,,,,,,,,ED WALKER,HOUSE DISTRICT 52,REP,STATE REPRESENTATIVE DISTRICT 52
School Freedom Fund,expenditure,04/26/2026 to 05/24/2026,C6,2026-04-26 00:00:00,Trade Desk,,,,"2710 Media Center Dr, Bldg 6",Los Angeles,CA,90065,,-7606.77,,,,,,Online Advertising,,,,,,,,,,,PM,,,,3,Oppose Valerie Moore,online,,online advertising,N,,,,,,,,VALERIE MOORE,HOUSE DISTRICT 29,REP,STATE REPRESENTATIVE DISTRICT 29
School Freedom Fund,expenditure,04/26/2026 to 05/24/2026,C6,2026-04-26 00:00:00,Trade Desk,,,,"2710 Media Center Dr, Bldg 6",Los Angeles,CA,90065,,-7143.0,,,,,,Online Advertising,,,,,,,,,,,PM,,,,3,Support Trevor Funseth,online,,online advertising,N,,,,,,,,TREVOR P FUNSETH,HOUSE DISTRICT 21,REP,STATE REPRESENTATIVE DISTRICT 21
School Freedom Fund,expenditure,04/26/2026 to 05/24/2026,C6,2026-04-26 00:00:00,Trade Desk,,,,"2710 Media Center Dr, Bldg 6",Los Angeles,CA,90065,,-9617.9,,,,,,Online Advertising,,,,,,,,,,,PM,,,,3,Oppose Susan Geise,online,,online advertising,N,,,,,,,,SUSAN GEISE,HOUSE DISTRICT 17,REP,STATE REPRESENTATIVE DISTRICT 17
School Freedom Fund,expenditure,04/26/2026 to 05/24/2026,C6,2026-04-26 00:00:00,Trade Desk,,,,"2710 Media Center Dr, Bldg 6",Los Angeles,CA,90065,,-9050.0,,,,,,Online Advertising,,,,,,,,,,,PM,,,,3,Support Steve LaPriam,online,,online advertising,N,,,,,,,,STEPHEN LAPRAIM,SENATE DISTRICT 42,REP,STATE SENATOR DISTRICT 42
School Freedom Fund,expenditure,04/26/2026 to 05/24/2026,C6,2026-04-26 00:00:00,Trade Desk,,,,"2710 Media Center Dr, Bldg 6",Los Angeles,CA,90065,,-2200.0,,,,,,Online Advertising,,,,,,,,,,,PM,,,,3,Oppose Shelley Vance,online,,online advertising,N,,,,,,,,SHELLEY VANCE,SENATE DISTRICT 34,REP,STATE SENATOR DISTRICT 34
School Freedom Fund,expenditure,04/26/2026 to 05/24/2026,C6,2026-04-26 00:00:00,Trade Desk,,,,"2710 Media Center Dr, Bldg 6",Los Angeles,CA,90065,,-8595.0,,,,,,Online Advertising,,,,,,,,,,,PM,,,,3,Support Caleb Hinkle,online,,online advertising,N,,,,,,,,CALEB HINKLE,SENATE DISTRICT 34,REP,STATE SENATOR DISTRICT 34
School Freedom Fund,expenditure,04/26/2026 to 05/24/2026,C6,2026-04-26 00:00:00,Trade Desk,,,,"2710 Media Center Dr, Bldg 6",Los Angeles,CA,90065,,-3000.0,,,,,,Online Advertising,,,,,,,,,,,PM,,,,3,Support Barry Usher,online,,online advertising ,N,,,,,,,,BARRY USHER,SENATE DISTRICT 19,REP,STATE SENATOR DISTRICT 19
School Freedom Fund,expenditure,04/26/2026 to 05/24/2026,C6,2026-04-26 00:00:00,Trade Desk,,,,"2710 Media Center Dr, Bldg 6",Los Angeles,CA,90065,,-9045.0,,,,,,Online Advertising,,,,,,,,,,,PM,,,,3,Support Greg Kmetz,online,,online advertising,N,,,,,,,,GREG KMETZ,SENATE DISTRICT 18,REP,STATE SENATOR DISTRICT 18
School Freedom Fund,expenditure,04/26/2026 to 05/24/2026,C6,2026-04-26 00:00:00,Trade Desk,,,,"2710 Media Center Dr, Bldg 6",Los Angelse,CA,90065,,-22000.0,,,,,,Online Advertising,,,,,,,,,,,PM,,,,3,Oppose George Nikolakakos,online,,online advertising,N,,,,,,,,GEORGE NIKOLAKAKOS,SENATE DISTRICT 12,REP,STATE SENATOR DISTRICT 12
School Freedom Fund,expenditure,04/26/2026 to 05/24/2026,C6,2026-05-08 00:00:00,Whistlestop Strategies LLC,,,,100 Coastal Drive,Charleston,SC,29492,,-1890.0,,,,,,Door hangers,,,,,,,,,,,PM,,,,3,Oppose George Nikolakakos,door to door,10000,door hangers,N,,,,,,,,GEORGE NIKOLAKAKOS,SENATE DISTRICT 12,REP,STATE SENATOR DISTRICT 12
School Freedom Fund,expenditure,04/26/2026 to 05/24/2026,C6,2026-05-08 00:00:00,Whistlestop Strategies LLC,,,,100 Coastal Drive,Charleston,SC,29492,,-1890.0,,,,,,Door hangers,,,,,,,,,,,PM,,,,3,Support Randy Pinocci,door to door,10000,door hangers,N,,,,,,,,RANDY PINOCCI,SENATE DISTRICT 12,REP,STATE SENATOR DISTRICT 12
School Freedom Fund,expenditure,04/26/2026 to 05/24/2026,C6,2026-05-24 00:00:00,Whistlestop Strategies LLC,,,,100 Coastal Drive,Charleston,SC,29492,,-2433.0,,,,,,Mail production/postage,,,,,,,,,,,PM,,,,3,Oppose Curtis Cochran,Mail,2113,mail production/postage,N,,,,,,,,CURTIS J COCHRAN,HOUSE DISTRICT 90,REP,STATE REPRESENTATIVE DISTRICT 90
School Freedom Fund,expenditure,04/26/2026 to 05/24/2026,C6,2026-05-24 00:00:00,Whistlestop Strategies LLC,,,,100 Coastal Drive,Charleston,SC,29492,,-2385.0,,,,,,Mail production/postage,,,,,,,,,,,PM,,,,3,Oppose Wayne Rusk,Mail,2004,mail production/postage,N,,,,,,,,WAYNE RUSK,HOUSE DISTRICT 86,REP,STATE REPRESENTATIVE DISTRICT 86
School Freedom Fund,expenditure,04/26/2026 to 05/24/2026,C6,2026-05-24 00:00:00,Whistlestop Strategies LLC,,,,100 Coastal Drive,Charleston,SC,29492,,-2536.0,,,,,,Mail production/postage,,,,,,,,,,,PM,,,,3,Oppose John Fitzpatrick,Mail,2352,mail production/postage,N,,,,,,,,JOHN FITZPATRICK,HOUSE DISTRICT 76,REP,STATE REPRESENTATIVE DISTRICT 76
School Freedom Fund,expenditure,04/26/2026 to 05/24/2026,C6,2026-05-24 00:00:00,Whistlestop Strategies LLC,,,,100 Coastal Drive,Charleston,SC,29492,,-2552.0,,,,,,Mail production/postage,,,,,,,,,,,PM,,,,3,Oppose Brad Barker,mail,2387,mail production/postage,N,,,,,,,,BRAD BARKER,HOUSE DISTRICT 55,REP,STATE REPRESENTATIVE DISTRICT 55
School Freedom Fund,expenditure,04/26/2026 to 05/24/2026,C6,2026-05-24 00:00:00,Whistlestop Strategies LLC,,,,100 Coastal Drive,Charleston,SC,29492,,-2928.0,,,,,,Mail production/postage,,,,,,,,,,,PM,,,,3,Oppose Stay Zinn,Mail,2200,mail production/postage,N,,,,,,,,STACY ZINN,HOUSE DISTRICT 52,REP,STATE REPRESENTATIVE DISTRICT 52
School Freedom Fund,expenditure,04/26/2026 to 05/24/2026,C6,2026-05-24 00:00:00,Whistlestop Strategies LLC,,,,100 Coastal Drive,Charleston,SC,29492,,-2260.0,,,,,,Mail production/postage,,,,,,,,,,,PM,,,,3,Oppose Ole Hedstrom,Mail,1716,mail production/postage,N,,,,,,,,OLE HEDSTROM,HOUSE DISTRICT 49,REP,STATE REPRESENTATIVE DISTRICT 49
School Freedom Fund,expenditure,04/26/2026 to 05/24/2026,C6,2026-05-24 00:00:00,Whistlestop Strategies LLC,,,,100 Coastal Drive,Charleston,SC,29492,,-2563.0,,,,,,Mail production/postage,,,,,,,,,,,PM,,,,3,Oppose Valerie Moore,Mail,2414,mail production/postage,N,,,,,,,,VALERIE MOORE,HOUSE DISTRICT 29,REP,STATE REPRESENTATIVE DISTRICT 29
School Freedom Fund,expenditure,04/26/2026 to 05/24/2026,C6,2026-05-24 00:00:00,Whistlestop Strategies LLC,,,,100 Coastal Drive,Charleston,SC,29492,,-2310.0,,,,,,Mail production/postage,,,,,,,,,,,PM,,,,3,Oppose Eric Peterson,Mail,2566,mail production/postage,N,,,,,,,,ERIC PETERSON,HOUSE DISTRICT 21,REP,STATE REPRESENTATIVE DISTRICT 21
School Freedom Fund,expenditure,04/26/2026 to 05/24/2026,C6,2026-05-24 00:00:00,Whistlestop Strategies LLC,,,,100 Coastal Drive,Charleston,SC,29492,,-2483.0,,,,,,Mail production/postage,,,,,,,,,,,PM,,,,3,Oppose Susan Geise,Mail,2229,mail production/postage,N,,,,,,,,SUSAN GEISE,HOUSE DISTRICT 17,REP,STATE REPRESENTATIVE DISTRICT 17
School Freedom Fund,expenditure,04/26/2026 to 05/24/2026,C6,2026-05-24 00:00:00,Whistlestop Strategies LLC,,,,100 Coastal Drive,Charleston,SC,29492,,-2995.0,,,,,,Mail production/postage,,,,,,,,,,,PM,,,,3,Oppose Shelley Vance,Mail,3407,mail production/postage,N,,,,,,,,SHELLEY VANCE,SENATE DISTRICT 34,REP,STATE SENATOR DISTRICT 34
School Freedom Fund,expenditure,04/26/2026 to 05/24/2026,C6,2026-04-26 00:00:00,Meta,,,,1601 Willow Road,Menlo Park,CA,94025,,-500.0,,,,,,Digital Advertising,,,,,,,,,,,PM,,,,3,Support Trevor Funseth,Facebook,,digital advertising,N,,,,,,,,TREVOR P FUNSETH,HOUSE DISTRICT 21,REP,STATE REPRESENTATIVE DISTRICT 21
School Freedom Fund,expenditure,04/26/2026 to 05/24/2026,C6,2026-04-26 00:00:00,Meta,,,,1601 Willow Road,Menlo Park,CA,94025,,-3000.0,,,,,,Digital Advertising,,,,,,,,,,,PM,,,,3,Oppose Valerie Moore,Facebook,,digital advertising,N,,,,,,,,VALERIE MOORE,HOUSE DISTRICT 29,REP,STATE REPRESENTATIVE DISTRICT 29
School Freedom Fund,expenditure,04/26/2026 to 05/24/2026,C6,2026-04-26 00:00:00,Meta,,,,1601 Willow Road,Menlo Park,CA,94025,,-882.03,,,,,,Digital Advertising,,,,,,,,,,,PM,,,,3,Support Steve LaPriam,Facebook,,digital advertising,N,,,,,,,,STEPHEN LAPRAIM,SENATE DISTRICT 42,REP,STATE SENATOR DISTRICT 42
School Freedom Fund,expenditure,04/26/2026 to 05/24/2026,C6,2026-04-26 00:00:00,Meta,,,,1601 Willow Road,Menlo Park,CA,94025,,-737.0,,,,,,Digital Advertising,,,,,,,,,,,PM,,,,3,Support Caleb Hinkle,Facebook,,digital advertising,N,,,,,,,,CALEB HINKLE,SENATE DISTRICT 34,REP,STATE SENATOR DISTRICT 34
School Freedom Fund,expenditure,04/26/2026 to 05/24/2026,C6,2026-04-26 00:00:00,Meta,,,,1601 Willow Road,Menlo Park,CA,94025,,-500.0,,,,,,Digital Advertising,,,,,,,,,,,PM,,,,3,Support Barry Usher,Facebook,,digital advertising,N,,,,,,,,BARRY USHER,SENATE DISTRICT 19,REP,STATE SENATOR DISTRICT 19
School Freedom Fund,expenditure,04/26/2026 to 05/24/2026,C6,2026-04-26 00:00:00,Meta,,,,1601 Willow Road,Menlo Park,CA,94025,,-500.0,,,,,,Digital Advertising,,,,,,,,,,,PM,,,,3,Support Greg Kmetz,Facebook,,digital advertising,N,,,,,,,,GREG KMETZ,SENATE DISTRICT 18,REP,STATE SENATOR DISTRICT 18
School Freedom Fund,expenditure,04/26/2026 to 05/24/2026,C6,2026-04-26 00:00:00,Meta,,,,1601 Willow Road,Menlo Park,CA,94025,,-1381.18,,,,,,Digital Advertising,,,,,,,,,,,PM,,,,3,Oppose George Nikolakakos,Facebook,,Digital advertising,N,,,,,,,,GEORGE NIKOLAKAKOS,SENATE DISTRICT 12,REP,STATE SENATOR DISTRICT 12
School Freedom Fund,expenditure,04/26/2026 to 05/24/2026,C6,2026-05-24 00:00:00,Whistlestop Strategies LLC,,,,100 Coastal Drive,Charleston,SC,29492,,-3662.0,,,,,,Mail production/postage,,,,,,,,,,,PM,,,,3,Oppose Chris Rindal,Mail,4944,mail production/postage,N,,,,,,,,CHRIS RINDAL,SENATE DISTRICT 19,REP,STATE SENATOR DISTRICT 19
School Freedom Fund,expenditure,04/26/2026 to 05/24/2026,C6,2026-05-24 00:00:00,Whistlestop Strategies LLC,,,,100 Coastal Drive,Charleston,SC,29492,,-2974.0,,,,,,Mail production/postage,,,,,,,,,,,PM,,,,3,Oppose George Nikolakakos,Mail,3360,mail production/postage,N,,,,,,,,GEORGE NIKOLAKAKOS,SENATE DISTRICT 12,REP,STATE SENATOR DISTRICT 12
School Freedom Fund,expenditure,04/26/2026 to 05/24/2026,C6,2026-04-28 00:00:00,Whistlestop Strategies LLC,,,,100 Coastal Drive,Charleston,SC,29492,,-2424.0,,,,,,Mail production/postage,,,,,,,,,,,PM,,,,3,Oppose Chrisholm Christensen,mail,2092,mail production/postage         ,N,,,,,,,,CHISHOLM B CHRISTENSEN,HOUSE DISTRICT 28,REP,STATE REPRESENTATIVE DISTRICT 28
School Freedom Fund,expenditure,04/07/2026 to 04/25/2026,C6,2026-04-21 00:00:00,Darby House LLC,,,,"4201 Wilson Blvd, Suite 110-126",Arlington,VA,22203,,-2315.0,,,,,,Video production/placement,,,,,,,,,,,PM,,,,3,Oppose Shelley Vance,Digital,1 ad + digital placement,Video production/Placement,N,,,,,,,,SHELLEY VANCE,SENATE DISTRICT 34,REP,STATE SENATOR DISTRICT 34
School Freedom Fund,expenditure,04/07/2026 to 04/25/2026,C6,2026-04-21 00:00:00,Darby House LLC,,,,"4201 Wilson Blvd, Suite 110-126",Arlington,VA,22203,,-3565.0,,,,,,Video production/placement,,,,,,,,,,,PM,,,,3,Oppose John Fitzpatrick,Digital,1 ad + digital placement,Video production/Placement,N,,,,,,,,JOHN FITZPATRICK,HOUSE DISTRICT 76,REP,STATE REPRESENTATIVE DISTRICT 76
School Freedom Fund,expenditure,04/07/2026 to 04/25/2026,C6,2026-04-21 00:00:00,Darby House LLC,,,,"4201 Wilson Blvd, Suite 110-126",Arlington,VA,22203,,-3565.0,,,,,,Video production/placement,,,,,,,,,,,PM,,,,3,Oppose Kenneth Walsh,Digital,1 ad + digital placement,Video production/Placement,N,,,,,,,,KEN WALSH,HOUSE DISTRICT 69,REP,STATE REPRESENTATIVE DISTRICT 69
School Freedom Fund,expenditure,04/07/2026 to 04/25/2026,C6,2026-04-21 00:00:00,Darby House LLC,,,,"4201 Wilson Blvd, Suite 110-126",Arlington,VA,22203,,-3565.0,,,,,,Video production/placement,,,,,,,,,,,PM,,,,3,Oppose Brad Barker,Digital,1 ad + digital placement,Video production/Placement,N,,,,,,,,BRAD BARKER,HOUSE DISTRICT 55,REP,STATE REPRESENTATIVE DISTRICT 55
School Freedom Fund,expenditure,04/07/2026 to 04/25/2026,C6,2026-04-21 00:00:00,Darby House LLC,,,,"4201 Wilson Blvd, Suite 110-126",Arlington,VA,22203,,-3565.0,,,,,,Video production/placement,,,,,,,,,,,PM,,,,3,Oppose Valerie Moore,Digital,1 ad + digital placement,Video production/placement,N,,,,,,,,VALERIE MOORE,HOUSE DISTRICT 29,REP,STATE REPRESENTATIVE DISTRICT 29
School Freedom Fund,expenditure,04/07/2026 to 04/25/2026,C6,2026-04-21 00:00:00,Darby House LLC,,,,"4201 Wilson Blvd, Suite 110-126",Arlington,VA,22203,,-3565.0,,,,,,Video production/placement,,,,,,,,,,,PM,,,,3,Oppose Curtis Cochran,Digital,1 ad + digital placement,Video production/placement,N,,,,,,,,CURTIS J COCHRAN,HOUSE DISTRICT 90,REP,STATE REPRESENTATIVE DISTRICT 90
School Freedom Fund,expenditure,04/07/2026 to 04/25/2026,C6,2026-04-21 00:00:00,Darby House LLC,,,,"4201 Wilson Blvd, Suite 110-126",Arlington,VA,22203,,-3565.0,,,,,,Video production/placement,,,,,,,,,,,PM,,,,3,Oppose Susan Geise,Digital,1 ad + digital placement,Video production/placement,N,,,,,,,,SUSAN GEISE,HOUSE DISTRICT 17,REP,STATE REPRESENTATIVE DISTRICT 17
School Freedom Fund,expenditure,04/07/2026 to 04/25/2026,C6,2026-04-10 00:00:00,Whistlestop Strategies LLC,,,,100 Coastal Drive,Charleston,SC,29492,,-2433.0,,,,,,Mail production/postage,,,,,,,,,,,PM,,,,3,Oppose Curtis Cochran,Mail,"2,113",Mail production/postage,N,,,,,,,,CURTIS J COCHRAN,HOUSE DISTRICT 90,REP,STATE REPRESENTATIVE DISTRICT 90
School Freedom Fund,expenditure,04/07/2026 to 04/25/2026,C6,2026-04-14 00:00:00,Whistlestop Strategies LLC,,,,100 Coastal Drive,Charleston,SC,29492,,-2424.0,,,,,,Mail production/postage,,,,,,,,,,,PM,,,,3,Oppose Chisholm Christensen,Mail,"2,092",Mail production/postage,N,,,,,,,,CHISHOLM B CHRISTENSEN,HOUSE DISTRICT 28,REP,STATE REPRESENTATIVE DISTRICT 28
School Freedom Fund,expenditure,04/07/2026 to 04/25/2026,C6,2026-04-17 00:00:00,Whistlestop Strategies LLC,,,,100 Coastal Drive,Charleston,SC,29492,,-2424.0,,,,,,Mail production/postage,,,,,,,,,,,PM,,,,3,Support John South,Mail,"2,092",Mail production/postage,N,,,,,,,,JOHN SOUTH,HOUSE DISTRICT 28,REP,STATE REPRESENTATIVE DISTRICT 28
School Freedom Fund,expenditure,04/07/2026 to 04/25/2026,C6,2026-04-17 00:00:00,Whistlestop Strategies LLC,,,,100 Coastal Drive,Charleston,SC,29492,,-2563.0,,,,,,Mail production/postage,,,,,,,,,,,PM,,,,3,Support Linda Harmon,Mail,"2,414",Mail production/postage,N,,,,,,,,LINDA HARMON,HOUSE DISTRICT 29,REP,STATE REPRESENTATIVE DISTRICT 29
School Freedom Fund,expenditure,04/07/2026 to 04/25/2026,C6,2026-04-17 00:00:00,Whistlestop Strategies LLC,,,,100 Coastal Drive,Charleston,SC,29492,,-2337.0,,,,,,Mail production/postage,,,,,,,,,,,PM,,,,3,Support Mike Vinton,Mail,"1,893",Mail production/postage,N,,,,,,,,MIKE VINTON,HOUSE DISTRICT 40,REP,STATE REPRESENTATIVE DISTRICT 40
School Freedom Fund,expenditure,04/07/2026 to 04/25/2026,C6,2026-04-17 00:00:00,Whistlestop Strategies LLC,,,,100 Coastal Drive,Charleston,SC,29492,,-2487.0,,,,,,Mail production/postage,,,,,,,,,,,PM,,,,3,Support Jim Riley,Mail,"2,468",Mail production/postage,N,,,,,,,,JIM RILEY,HOUSE DISTRICT 6,REP,STATE REPRESENTATIVE DISTRICT 6
School Freedom Fund,expenditure,04/07/2026 to 04/25/2026,C6,2026-04-17 00:00:00,Whistlestop Strategies LLC,,,,100 Coastal Drive,Charleston,SC,29492,,-2995.0,,,,,,Mail production/postage,,,,,,,,,,,PM,,,,3,Supopt Caleb Hinkle,Mail,"3,407",Mail production/postage,N,,,,,,,,CALEB HINKLE,SENATE DISTRICT 34,REP,STATE SENATOR DISTRICT 34
School Freedom Fund,expenditure,04/07/2026 to 04/25/2026,C6,2026-04-17 00:00:00,Whistlestop Strategies LLC,,,,100 Coastal Drive,Charleston,SC,29492,,-3662.0,,,,,,Mail production/postage,,,,,,,,,,,PM,,,,3,Support Barry Usher,Mail,"4,944",Mail production/postage,N,,,,,,,,BARRY USHER,SENATE DISTRICT 19,REP,STATE SENATOR DISTRICT 19
School Freedom Fund,expenditure,04/07/2026 to 04/25/2026,C6,2026-04-21 00:00:00,Whistlestop Strategies LLC,,,,100 Coastal Drive,Charleston,SC,29492,,-2424.0,,,,,,Mail production/postage,,,,,,,,,,,PM,,,,3,Support John South,Mail,"2,092",Mail production/postage,N,,,,,,,,JOHN SOUTH,HOUSE DISTRICT 28,REP,STATE REPRESENTATIVE DISTRICT 28
School Freedom Fund,expenditure,04/07/2026 to 04/25/2026,C6,2026-04-21 00:00:00,Whistlestop Strategies LLC,,,,100 Coastal Drive,Charleston,SC,29492,,-2563.0,,,,,,Mail production/postage,,,,,,,,,,,PM,,,,3,Support Linda Harmon,Mail,"2,414",Mail production/postage,N,,,,,,,,LINDA HARMON,HOUSE DISTRICT 29,REP,STATE REPRESENTATIVE DISTRICT 29
School Freedom Fund,expenditure,04/07/2026 to 04/25/2026,C6,2026-04-21 00:00:00,Whistlestop Strategies LLC,,,,100 Coastal Drive,Charleston,SC,29492,,-2995.0,,,,,,Mail production/postage,,,,,,,,,,,PM,,,,3,Support Caleb Hinkle,Mail,"3,407",Mail production/postage,N,,,,,,,,CALEB HINKLE,SENATE DISTRICT 34,REP,STATE SENATOR DISTRICT 34
School Freedom Fund,expenditure,04/07/2026 to 04/25/2026,C6,2026-04-21 00:00:00,Whistlestop Strategies LLC,,,,100 Coastal Drive,Charleston,SC,29492,,-2337.0,,,,,,Mail production/postage,,,,,,,,,,,PM,,,,3,Support Mike Vinton,Mail,"1,893",Mail production/postage,N,,,,,,,,MIKE VINTON,HOUSE DISTRICT 40,REP,STATE REPRESENTATIVE DISTRICT 40
School Freedom Fund,expenditure,04/07/2026 to 04/25/2026,C6,2026-04-21 00:00:00,Whistlestop Strategies LLC,,,,100 Coastal Drive,Charleston,SC,29492,,-2487.0,,,,,,Mail production/postage,,,,,,,,,,,PM,,,,3,Support Jim Riley,Mail,"2,468",Mail production/postage,N,,,,,,,,JIM RILEY,HOUSE DISTRICT 6,REP,STATE REPRESENTATIVE DISTRICT 6
School Freedom Fund,expenditure,04/07/2026 to 04/25/2026,C6,2026-04-21 00:00:00,Whistlestop Strategies LLC,,,,100 Coastal Drive,Charleston,SC,29492,,-2433.0,,,,,,Mail production/postage,,,,,,,,,,,PM,,,,3,Support Jeff Stanek,Mail,"2,113",Mail production/postage,N,,,,,,,,JEFF STANEK,HOUSE DISTRICT 90,REP,STATE REPRESENTATIVE DISTRICT 90
School Freedom Fund,expenditure,04/07/2026 to 04/25/2026,C6,2026-04-21 00:00:00,Whistlestop Strategies LLC,,,,100 Coastal Drive,Charleston,SC,29492,,-2385.0,,,,,,Mail production/postage,,,,,,,,,,,PM,,,,3,Support Ken Allen,Mail,"2,004",Mail production/postage,N,,,,,,,,KENNETH E ALLEN,HOUSE DISTRICT 86,REP,STATE REPRESENTATIVE DISTRICT 86
School Freedom Fund,expenditure,04/07/2026 to 04/25/2026,C6,2026-04-21 00:00:00,Whistlestop Strategies LLC,,,,100 Coastal Drive,Charleston,SC,29492,,-2555.0,,,,,,Mail production/postage,,,,,,,,,,,PM,,,,3,Support Trevor Walter,Mail,"2,394",Mail production/postage,N,,,,,,,,TREVOR WALTER,HOUSE DISTRICT 69,REP,STATE REPRESENTATIVE DISTRICT 69
School Freedom Fund,expenditure,04/07/2026 to 04/25/2026,C6,2026-04-21 00:00:00,Whistlestop Strategies LLC,,,,100 Coastal Drive,Charleston,SC,29492,,-2183.0,,,,,,Mail production/postage,,,,,,,,,,,PM,,,,3,Support Jedediah Hinkle,Mail,"1,537",Mail production/postage,N,,,,,,,,JEDEDIAH HINKLE,HOUSE DISTRICT 67,REP,STATE REPRESENTATIVE DISTRICT 67
School Freedom Fund,expenditure,04/07/2026 to 04/25/2026,C6,2026-04-21 00:00:00,Whistlestop Strategies LLC,,,,100 Coastal Drive,Charleston,SC,29492,,-2552.0,,,,,,Mail production/postage,,,,,,,,,,,PM,,,,3,Support Mary Horman,Mail,"2,387",Mail production/postage,N,,,,,,,,MARY HORMAN,HOUSE DISTRICT 55,REP,STATE REPRESENTATIVE DISTRICT 55
School Freedom Fund,expenditure,04/07/2026 to 04/25/2026,C6,2026-04-21 00:00:00,Whistlestop Strategies LLC,,,,100 Coastal Drive,Charleston,SC,29492,,-2483.0,,,,,,Mail production/postage,,,,,,,,,,,PM,,,,3,Support Nelly Nicol,Mail,"2,229",Mail production/postage,N,,,,,,,,NELLY NICOL,HOUSE DISTRICT 53,REP,STATE REPRESENTATIVE DISTRICT 53
School Freedom Fund,expenditure,04/07/2026 to 04/25/2026,C6,2026-04-21 00:00:00,Whistlestop Strategies LLC,,,,100 Coastal Drive,Charleston,SC,29492,,-2260.0,,,,,,Mail production/postage,,,,,,,,,,,PM,,,,3,Support Charlie Loveridge,Mail,"1,716",Mail production/postage,N,,,,,,,,CHARLIE LOVERIDGE,HOUSE DISTRICT 49,REP,STATE REPRESENTATIVE DISTRICT 49
School Freedom Fund,expenditure,04/07/2026 to 04/25/2026,C6,2026-04-21 00:00:00,Whistlestop Strategies LLC,,,,100 Coastal Drive,Charleston,SC,29492,,-2483.0,,,,,,Mail production/postage,,,,,,,,,,,PM,,,,3,Support Justin Cleveland,Mail,"2,229",Mail production/postage,N,,,,,,,,JUSTIN W CLEVELAND,HOUSE DISTRICT 17,REP,STATE REPRESENTATIVE DISTRICT 17
School Freedom Fund,expenditure,04/07/2026 to 04/25/2026,C6,2026-04-21 00:00:00,Whistlestop Strategies LLC,,,,100 Coastal Drive,Charleston,SC,29492,,-3281.0,,,,,,Mail production/postage,,,,,,,,,,,PM,,,,3,Support Steve Lapraim,Mail,"4,066",Mail production/postage,N,,,,,,,,STEPHEN LAPRAIM,SENATE DISTRICT 42,REP,STATE SENATOR DISTRICT 42
School Freedom Fund,expenditure,04/07/2026 to 04/25/2026,C6,2026-04-21 00:00:00,Whistlestop Strategies LLC,,,,100 Coastal Drive,Charleston,SC,29492,,-3315.0,,,,,,Mail production/postage,,,,,,,,,,,PM,,,,3,Support Greg Kmetz,Mail,"4,144",Mail production/postage,N,,,,,,,,GREG KMETZ,SENATE DISTRICT 18,REP,STATE SENATOR DISTRICT 18
School Freedom Fund,expenditure,04/07/2026 to 04/25/2026,C6,2026-04-21 00:00:00,Whistlestop Strategies LLC,,,,100 Coastal Drive,Charleston,SC,29492,,-2974.0,,,,,,Mail production/postage,,,,,,,,,,,PM,,,,3,Support Randy Pinocci,Mail,"3,360",Mail production/postage,N,,,,,,,,RANDY PINOCCI,SENATE DISTRICT 12,REP,STATE SENATOR DISTRICT 12
School Freedom Fund,expenditure,04/07/2026 to 04/25/2026,C6,2026-04-17 00:00:00,Whistlestop Strategies LLC,,,,100 Coastal Drive,Charleston,SC,29492,,-2928.0,,,,,,Mail production/postage,,,,,,,,,,,PM,,,,3,Support Ed Walker,Mail,"2,220",Mail production/postage,N,,,,,,,,ED WALKER,HOUSE DISTRICT 52,REP,STATE REPRESENTATIVE DISTRICT 52
School Freedom Fund,expenditure,04/07/2026 to 04/25/2026,C6,2026-04-17 00:00:00,Whistlestop Strategies LLC,,,,100 Coastal Drive,Charleston,SC,29492,,-2310.0,,,,,,Mail production/postage,,,,,,,,,,,PM,,,,3,Support Trevor Funseth ,Mail,"2,566",Mail production/postage,N,,,,,,,,TREVOR P FUNSETH,HOUSE DISTRICT 21,REP,STATE REPRESENTATIVE DISTRICT 21
School Freedom Fund,expenditure,04/07/2026 to 04/25/2026,C6,2026-04-17 00:00:00,Whistlestop Strategies LLC,,,,100 Coastal Drive,Charleston,SC,29492,,-2433.0,,,,,,Mail production/postage,,,,,,,,,,,PM,,,,3,Oppose Curtis Cochran,Mail ,"2,113",Mail production/postage,N,,,,,,,,CURTIS J COCHRAN,HOUSE DISTRICT 90,REP,STATE REPRESENTATIVE DISTRICT 90
School Freedom Fund,expenditure,04/07/2026 to 04/25/2026,C6,2026-04-17 00:00:00,Whistlestop Strategies LLC,,,,100 Coastal Drive,Charleston,SC,29492,,-2385.0,,,,,,Mail production/postage,,,,,,,,,,,PM,,,,3,Oppose Wayne Rusk,Mail,"2,004",MaiMail production/postage,N,,,,,,,,WAYNE RUSK,HOUSE DISTRICT 86,REP,STATE REPRESENTATIVE DISTRICT 86
School Freedom Fund,expenditure,04/07/2026 to 04/25/2026,C6,2026-04-17 00:00:00,Whistlestop Strategies LLC,,,,100 Coastal Drive,Charleston,SC,29492,,-2555.0,,,,,,Mail production/postage,,,,,,,,,,,PM,,,,3,Oppose Ken Walsh,Mail,"2,394",Mail production/postage,N,,,,,,,,KEN WALSH,HOUSE DISTRICT 69,REP,STATE REPRESENTATIVE DISTRICT 69
School Freedom Fund,expenditure,04/07/2026 to 04/25/2026,C6,2026-04-17 00:00:00,Whistlestop Strategies LLC,,,,100 Coastal Drive,Charleston,SC,29492,,-2183.0,,,,,,Mail production/postage,,,,,,,,,,,PM,,,,3,Oppose Russ Nelson,Mail,"1,537",Mail production/postage,N,,,,,,,,RUSSELL C NELSON,HOUSE DISTRICT 67,REP,STATE REPRESENTATIVE DISTRICT 67
School Freedom Fund,expenditure,04/07/2026 to 04/25/2026,C6,2026-04-17 00:00:00,Whistlestop Strategies LLC,,,,100 Coastal Drive,Charleston,SC,29492,,-2552.0,,,,,,Mail production/postage,,,,,,,,,,,PM,,,,3,Oppose Brad Barker,Mail,"2,387",Mail production/postage,N,,,,,,,,BRAD BARKER,HOUSE DISTRICT 55,REP,STATE REPRESENTATIVE DISTRICT 55
