Committee,Type,Reporting Period,Report Type,Date Paid,Entity Name,First Name,Middle Initial,Last Name,Addr Line1,City,State,Zip,Zip4,Amount,Country,Occupation,Employer,Contribution Type,Amount Type,Purpose,Total To Date,Refund Transaction Type,Refund Original Transaction Date,Refund Original Transaction Total,Refund Original Transaction Descr,Previous Transaction (Y/N),Fundraiser Name,Fundraiser Location,Fundraiser Attendees,Fundraiser Tickets Sold,Election Type,Total Primary,Total General,type,Expenditure Type,Candidate Issue,Expenditure Platform,Expenditure Quantity,Expenditure Specific Services,Attachment,# of Donors - Individuals,Total $ - Individual,# of Donors - Committees,Total $ - Committee,Expenditure Paid Communications Platform,Expenditure Paid Communications Quantity,Expenditure Paid Communications Subject Matter
Montanans Decide,expenditure,03/26/2026 to 04/25/2026,C6,2026-04-02 00:00:00,Advanced Micro Targeting,,,,"5757 Alpha Rd, Ste 501",Dallas,TX,75240.0,,-234500.0,,,,,,Paid Signature Gatherers,,,,,,,,,,,GN,,,,2.0,,,,,N,,,,,,,
Montanans Decide,expenditure,03/26/2026 to 04/25/2026,C6,2026-04-02 00:00:00,First Interstate,,,First Interstate,25 E Lyndale,Helena,MT,59601.0,,-30.0,,,,,,Wire transfer fee,,,,,,,,,,,GN,,,,2.0,,,,,N,,,,,,,
Montanans Decide,expenditure,03/26/2026 to 04/25/2026,C6,2026-04-09 00:00:00,USPS,,,,500 N Last Chance Gulch,Helena,MT,59601.0,,-46.8,,,,,,Stamps for postage-pre paid return envelopes for petition submissions to county election offices,,,,,,,,,,,GN,,,,2.0,,,,,N,,,,,,,
Montanans Decide,expenditure,03/26/2026 to 04/25/2026,C6,2026-04-23 00:00:00,Fireweed Campaigns,,,,PO Box 87,Helena,MT,59624.0,,-6250.0,,,,,,"Project Management (April 1-15, 2026)",,,,,,,,,,,GN,,,,2.0,,,,,N,,,,,,,
Montanans Decide,expenditure,03/26/2026 to 04/25/2026,C6,2026-04-09 00:00:00,Squarespace,,,,225 Varick St.,New York,NY,10014.0,,-6.16,,,,,,Google Apps Subscription (additional account added),,,,,,,,,,,GN,,,,2.0,,,,,N,,,,,,,
Montanans Decide,expenditure,03/26/2026 to 04/25/2026,C6,2026-04-03 00:00:00,Squarespace,,,,225 Varick St.,New York,NY,10014.0,,-36.0,,,,,,Website Subscription (April 2026),,,,,,,,,,,GN,,,,2.0,,,,,N,,,,,,,
Montanans Decide,expenditure,03/26/2026 to 04/25/2026,C6,2026-04-01 00:00:00,Squarespace,,,,225 Varick St.,New York,NY,10014.0,,-8.4,,,,,,Google Workspace monthly subscription (April 2026),,,,,,,,,,,GN,,,,2.0,,,,,N,,,,,,,
Montanans Decide,expenditure,03/26/2026 to 04/25/2026,C6,2026-04-02 00:00:00,First Interstate,,,First Interstate,25 E Lyndale,Helena,MT,59601.0,,-30.0,,,,,,Wire transfer fee,,,,,,,,,,,GN,,,,2.0,,,,,N,,,,,,,
Montanans Decide,expenditure,03/26/2026 to 04/25/2026,C6,2026-04-01 00:00:00,First Interstate,,,First Interstate,25 E Lyndale,Helena,MT,59601.0,,-10.0,,,,,,Wire transfer fee,,,,,,,,,,,GN,,,,2.0,,,,,N,,,,,,,
Montanans Decide,expenditure,03/26/2026 to 04/25/2026,C6,2026-04-25 00:00:00,Democracy Engine,,,,2125 14th St NW #101W,Washington,DC,20009.0,,-21.4,,,,,,Donation processing fees from 3/26 to 4/25,,,,,,,,,,,GN,,,,2.0,,,,,N,,,,,,,
Montanans Decide,expenditure,03/26/2026 to 04/25/2026,C6,2026-04-13 00:00:00,First Interstate,,,First Interstate,25 E Lyndale,Helena,MT,59601.0,,-30.0,,,,,,Wire transfer fee,,,,,,,,,,,GN,,,,2.0,,,,,N,,,,,,,
Montanans Decide,expenditure,03/26/2026 to 04/25/2026,C6,2026-04-02 00:00:00,eQual Public Benefit Corp.,,,,2021 Fillmore Street #9138,San Francisco,CA,94115.0,,-25000.0,,,,,,Signature Validation,,,,,,,,,,,GN,,,,2.0,,,,,N,,,,,,,
Montanans Decide,expenditure,03/26/2026 to 04/25/2026,C6,2026-04-10 00:00:00,Alphagraphics,,,,40 W Lawrence,Helena,MT,59601.0,,-5475.45,,,,,,"Printing CI-133 petitions (26,400), full text (13,500) & unsworn declarations (14,000)",,,,,,,,,,,GN,,,,2.0,,,,,N,,,,,,,
Montanans Decide,expenditure,03/26/2026 to 04/25/2026,C6,2026-04-13 00:00:00,Advanced Micro Targeting,,,,"5757 Alpha Rd, Ste 501",Dallas,TX,75240.0,,-234500.0,,,,,,Paid Signature Gatherers,,,,,,,,,,,GN,,,,2.0,,,,,N,,,,,,,
Montanans Decide,expenditure,03/26/2026 to 04/25/2026,C6,2026-04-23 00:00:00,Uplift,,,,2140 Shattuck Ave Ste 1101,Berkeley,CA,94704.0,,-318.04,,,,,,"Fundraising text sent 3/26 to 7,775 people",,,,,,,,,,,GN,,,,2.0,,,,,N,,,,,,,
Montanans Decide,expenditure,03/26/2026 to 04/25/2026,C6,2026-04-23 00:00:00,Aspect Strategic,,,,1855 N Gaylord St,Denver,CO,80206.0,,-49000.0,,,,,,Ballot Language Survey (n800),,,,,,,,,,,GN,,,,2.0,,,,,N,,,,,,,
Montanans Decide,expenditure,01/01/2026 to 03/25/2026,C6,2026-03-12 00:00:00,Fireweed Campaigns,,,,PO Box 87,Helena,MT,59624.0,,-12500.0,,,,,,Project Management (February 2026),,,,,,,,,,,GN,,,,2.0,,,,,N,,,,,,,
Montanans Decide,expenditure,01/01/2026 to 03/25/2026,C6,2026-02-23 00:00:00,Squarespace,,,,225 Varick St.,New York,NY,10014.0,,-40.0,,,,,,"Email campaigns monthly subscription: 25,000 emails per month (2/23-3/23)",,,,,,,,,,,GN,,,,2.0,,,,,N,,,,,,,
Montanans Decide,expenditure,01/01/2026 to 03/25/2026,C6,2026-02-16 00:00:00,Squarespace,,,,225 Varick St.,New York,NY,10014.0,,-40.0,,,,,,Domain renewal for two Montanans Decide URLs,,,,,,,,,,,GN,,,,2.0,,,,,N,,,,,,,
Montanans Decide,expenditure,01/01/2026 to 03/25/2026,C6,2026-02-16 00:00:00,Squarespace,,,,225 Varick St.,New York,NY,10014.0,,-37.0,,,,,,Domain fee,,,,,,,,,,,GN,,,,2.0,,,,,N,,,,,,,
Montanans Decide,expenditure,01/01/2026 to 03/25/2026,C6,2026-01-23 00:00:00,Squarespace,,,,225 Varick St.,New York,NY,10014.0,,-28.0,,,,,,"Email campaigns monthly subscription: 25,000 emails per month less unused time on 500 emails per month (1/23-2/23)",,,,,,,,,,,GN,,,,2.0,,,,,N,,,,,,,
Montanans Decide,expenditure,01/01/2026 to 03/25/2026,C6,2026-01-30 00:00:00,Squarespace,,,,225 Varick St.,New York,NY,10014.0,,-8.4,,,,,,Google Workspace monthly subscription (February 2026),,,,,,,,,,,GN,,,,2.0,,,,,N,,,,,,,
Montanans Decide,expenditure,01/01/2026 to 03/25/2026,C6,2026-03-03 00:00:00,Squarespace,,,,225 Varick St.,New York,NY,10014.0,,-36.0,,,,,,Website Subscription - March,,,,,,,,,,,GN,,,,2.0,,,,,N,,,,,,,
Montanans Decide,expenditure,01/01/2026 to 03/25/2026,C6,2026-02-16 00:00:00,Squarespace,,,,225 Varick St.,New York,NY,10014.0,,-80.0,,,,,,Domain renewal for four Montanans Decide URLs,,,,,,,,,,,GN,,,,2.0,,,,,N,,,,,,,
Montanans Decide,expenditure,01/01/2026 to 03/25/2026,C6,2026-03-01 00:00:00,Squarespace,,,,225 Varick St.,New York,NY,10014.0,,-8.4,,,,,,Google Workspace monthly subscription (March 2026),,,,,,,,,,,GN,,,,2.0,,,,,N,,,,,,,
Montanans Decide,expenditure,01/01/2026 to 03/25/2026,C6,2026-01-26 00:00:00,Adams Tax Forms,,,,"9041 Executive Park Dr, Ste 205",Knoxville,TN,37923.0,,-12.4,,,,,,1099 filings (2),,,,,,,,,,,GN,,,,2.0,,,,,N,,,,,,,
Montanans Decide,expenditure,01/01/2026 to 03/25/2026,C6,2026-01-26 00:00:00,Adams Tax Forms,,,,"9041 Executive Park Dr, Ste 205",Knoxville,TN,37923.0,,-37.2,,,,,,1099 filings (6),,,,,,,,,,,GN,,,,2.0,,,,,N,,,,,,,
Montanans Decide,expenditure,01/01/2026 to 03/25/2026,C6,2026-03-17 00:00:00,USPS,,,,500 N Last Chance Gulch,Helena,MT,59601.0,,-57.0,,,,,,PO Box subscription (3 months),,,,,,,,,,,GN,,,,2.0,,,,,N,,,,,,,
Montanans Decide,expenditure,01/01/2026 to 03/25/2026,C6,2026-03-16 00:00:00,Zupanic Law PLLC,,,,PO Box 1982,Helena,MT,59624.0,,-3000.0,,,,,,Compliance (February 2026),,,,,,,,,,,GN,,,,2.0,,,,,N,,,,,,,
Montanans Decide,expenditure,01/01/2026 to 03/25/2026,C6,2026-02-18 00:00:00,Zupanic Law PLLC,,,,PO Box 1982,Helena,MT,59624.0,,-3000.0,,,,,,Compliance (January 2026),,,,,,,,,,,GN,,,,2.0,,,,,N,,,,,,,
Montanans Decide,expenditure,01/01/2026 to 03/25/2026,C6,2026-03-24 00:00:00,Alphagraphics,,,,40 W Lawrence,Helena,MT,59601.0,,-2890.36,,,,,,"Printing CI-133 petitions (15,000), full text (5,000) & unsworn declarations (5,000)",,,,,,,,,,,GN,,,,2.0,,,,,N,,,,,,,
Montanans Decide,expenditure,01/01/2026 to 03/25/2026,C6,2026-03-25 00:00:00,Democracy Engine,,,,2125 14th St NW #101W,Washington,DC,20009.0,,-49.44,,,,,,Donation processing fees from 1/1 to 3/25,,,,,,,,,,,GN,,,,2.0,,,,,N,,,,,,,
Montanans Decide,expenditure,01/01/2026 to 03/25/2026,C6,2026-01-26 00:00:00,Adams Tax Forms,,,,"9041 Executive Park Dr, Ste 205",Knoxville,TN,37923.0,,-6.2,,,,,,1099 filing,,,,,,,,,,,GN,,,,2.0,,,,,N,,,,,,,
Montanans Decide,expenditure,01/01/2026 to 03/25/2026,C6,2026-03-13 00:00:00,Central House Strategies,,,,PO Box 878 ,Helena,MT,59624.0,,-3500.0,,,,,,Spokesperson Services (February 2026),,,,,,,,,,,GN,,,,2.0,,,,,N,,,,,,,
Montanans Decide,expenditure,01/01/2026 to 03/25/2026,C6,2026-02-17 00:00:00,Central House Strategies,,,,PO Box 878 ,Helena,MT,59624.0,,-3500.0,,,,,,Spokesperson Services (January 2026),,,,,,,,,,,GN,,,,2.0,,,,,N,,,,,,,
Montanans Decide,expenditure,01/01/2026 to 03/25/2026,C6,2026-02-17 00:00:00,Fireweed Campaigns,,,,PO Box 87,Helena,MT,59624.0,,-12500.0,,,,,,Project Management (January 2026),,,,,,,,,,,GN,,,,2.0,,,,,N,,,,,,,
Montanans Decide,expenditure,01/01/2026 to 03/25/2026,C6,2026-01-23 00:00:00,Squarespace,,,,225 Varick St.,New York,NY,10014.0,,-12.0,,,,,,Email campaigns monthly subscription: 500 emails per month (1/23-2/23),,,,,,,,,,,GN,,,,2.0,,,,,N,,,,,,,
Montanans Decide,expenditure,01/01/2026 to 03/25/2026,C6,2026-01-03 00:00:00,Squarespace,,,,225 Varick St.,New York,NY,10014.0,,-36.0,,,,,,Website Subscription - January,,,,,,,,,,,GN,,,,2.0,,,,,N,,,,,,,
Montanans Decide,expenditure,01/01/2026 to 03/25/2026,C6,2026-02-03 00:00:00,Squarespace,,,,225 Varick St.,New York,NY,10014.0,,-36.0,,,,,,Website Subscription - February,,,,,,,,,,,GN,,,,2.0,,,,,N,,,,,,,
Montanans Decide,expenditure,10/03/2025 to 12/31/2025,C6,2025-12-31 00:00:00,Democracy Engine,,,,2125 14th St NW #101W,Washington,DC,20009.0,,-41.63,,,,,,Donation processing fees from 10/1 to 12/31,,,,,,,,,,,GN,,,,2.0,,,,,N,,,,,,,
Montanans Decide,expenditure,10/03/2025 to 12/31/2025,C6,2025-12-05 00:00:00,"Graybill Law Firm, PC",,,,PO Box 3586,Great Falls,MT,59403.0,,-11670.3,,,,,,Legal Services (October 2025),,,,,,,,,,,GN,,,,2.0,,,,,N,,,,,,,
Montanans Decide,expenditure,10/03/2025 to 12/31/2025,C6,2025-12-03 00:00:00,Squarespace,,,,225 Varick St.,New York,NY,10014.0,,-36.0,,,,,,Website subscription (December 2025),,,,,,,,,,,GN,,,,2.0,,,,,N,,,,,,,
Montanans Decide,expenditure,10/03/2025 to 12/31/2025,C6,2025-11-17 00:00:00,Central House Strategies,,,,PO Box 878 ,Helena,MT,59624.0,,-3500.0,,,,,,Spokesperson services (October 2025),,,,,,,,,,,GN,,,,2.0,,,,,N,,,,,,,
Montanans Decide,expenditure,10/03/2025 to 12/31/2025,C6,2025-11-16 00:00:00,Veazey Strategies,,,,PO 1752,Helena ,MT,59624.0,,-2175.0,,,,,,Policy analysis (October 2025),,,,,,,,,,,GN,,,,2.0,,,,,N,,,,,,,
Montanans Decide,expenditure,10/03/2025 to 12/31/2025,C6,2025-11-03 00:00:00,Squarespace,,,,225 Varick St.,New York,NY,10014.0,,-36.0,,,,,,Website subscription (November 2025),,,,,,,,,,,GN,,,,2.0,,,,,N,,,,,,,
Montanans Decide,expenditure,10/03/2025 to 12/31/2025,C6,2025-12-17 00:00:00,Fireweed Campaigns,,,,PO Box 87,Helena,MT,59624.0,,-1225.0,,,,,,Data Analysis,,,,,,,,,,,GN,,,,2.0,,,,,N,,,,,,,
Montanans Decide,expenditure,10/03/2025 to 12/31/2025,C6,2025-12-16 00:00:00,Central House Strategies,,,,PO Box 878 ,Helena,MT,59624.0,,-3500.0,,,,,,Spokesperson Services (November 2025),,,,,,,,,,,GN,,,,2.0,,,,,N,,,,,,,
Montanans Decide,expenditure,10/03/2025 to 12/31/2025,C6,2025-12-16 00:00:00,Zupanic Law PLLC,,,,PO Box 1982,Helena,MT,59624.0,,-3000.0,,,,,,Legal Services - Compliance (November 2025),,,,,,,,,,,GN,,,,2.0,,,,,N,,,,,,,
Montanans Decide,expenditure,10/03/2025 to 12/31/2025,C6,2025-12-16 00:00:00,Uplift,,,,2140 Shattuck Ave Ste 1101,Berkeley,CA,94704.0,,-1788.04,,,,,,"45,838 Text Messages sent on 12/5/2025",,,,,,,,,,,GN,,,,2.0,,,,,N,,,,,,,
Montanans Decide,expenditure,10/03/2025 to 12/31/2025,C6,2025-12-16 00:00:00,"Graybill Law Firm, PC",,,,PO Box 3586,Great Falls,MT,59403.0,,-1656.8,,,,,,Legal services (November 2025),,,,,,,,,,,GN,,,,2.0,,,,,N,,,,,,,
Montanans Decide,expenditure,10/03/2025 to 12/31/2025,C6,2025-12-11 00:00:00,Caplin & Drysdale,,,,1200 New Hampshire Avenue NW 8th Floor,Washington,DC,20036.0,,-16168.0,,,,,,"Legal services (September, October 2025)",,,,,,,,,,,GN,,,,2.0,,,,,N,,,,,,,
Montanans Decide,expenditure,10/03/2025 to 12/31/2025,C6,2025-12-11 00:00:00,Zupanic Law PLLC,,,,PO Box 1982,Helena,MT,59624.0,,-3000.0,,,,,,Legal Services - Compliance (October 2025),,,,,,,,,,,GN,,,,2.0,,,,,N,,,,,,,
Montanans Decide,expenditure,10/03/2025 to 12/31/2025,C6,2025-12-10 00:00:00,Squarespace,,,,225 Varick St.,New York,NY,10014.0,,-48.0,,,,,,Email client subscription (December 2025),,,,,,,,,,,GN,,,,2.0,,,,,N,,,,,,,
Montanans Decide,expenditure,10/03/2025 to 12/31/2025,C6,2025-10-28 00:00:00,"Graybill Law Firm, PC",,,,PO Box 3586,Great Falls,MT,59403.0,,-9835.6,,,,,,Legal Services - Policy Analysis (September 2025),,,,,,,,,,,GN,,,,2.0,,,,,N,,,,,,,
Montanans Decide,expenditure,10/03/2025 to 12/31/2025,C6,2025-10-08 00:00:00,Caplin & Drysdale,,,,1200 New Hampshire Avenue NW 8th Floor,Washington,DC,20036.0,,-2220.0,,,,,,Legal Services - Policy Analysis (August 2025),,,,,,,,,,,GN,,,,2.0,,,,,N,,,,,,,
Montanans Decide,expenditure,10/03/2025 to 12/31/2025,C6,2025-10-08 00:00:00,Zupanic Law PLLC,,,,PO Box 1982,Helena,MT,59624.0,,-1250.0,,,,,,Legal Services - Compliance Memo,,,,,,,,,,,GN,,,,2.0,,,,,N,,,,,,,
Montanans Decide,expenditure,10/03/2025 to 12/31/2025,C6,2025-10-03 00:00:00,Squarespace,,,,225 Varick St.,New York,NY,10014.0,,-28.8,,,,,,Website subscription (October 2025),,,,,,,,,,,,,,,2.0,,,,,,,,,,,,
Montanans Decide,expenditure,10/03/2025 to 12/31/2025,C6,2025-11-03 00:00:00,First Interstate,,,First Interstate,25 E Lyndale,Helena,MT,59601.0,,-10.0,,,,,,Incoming Wire Transfer Fee,,,,,,,,,,,GN,,,,2.0,,,,,N,,,,,,,
Montanans Decide,expenditure,10/03/2025 to 12/31/2025,C6,2025-10-28 00:00:00,"Graybill Law Firm, PC",,,,PO Box 3586,Great Falls,MT,59403.0,,-15121.6,,,,,,Legal Services - Policy Analysis (August 2025),,,,,,,,,,,GN,,,,2.0,,,,,N,,,,,,,
Montanans Decide,expenditure,10/03/2025 to 12/31/2025,C6,2025-10-28 00:00:00,Veazey Strategies,,,,PO 1752,Helena ,MT,59624.0,,-13350.0,,,,,,"Policy analysis (August, September 2025)",,,,,,,,,,,GN,,,,2.0,,,,,N,,,,,,,
Montanans Decide,expenditure,10/03/2025 to 12/31/2025,C6,2025-12-31 00:00:00,Fireweed Campaigns,,,,PO Box 87,Helena,MT,59624.0,,-35000.0,,,,,,"Project Management (September, October, November 2025)",,,,,,,,,,,GN,,,,2.0,,,,,N,,,,,,,
Montanans Decide,expenditure,10/03/2025 to 12/31/2025,C6,2025-12-24 00:00:00,Melio Solutions Inc.,,,,124 E 14th St.,New York,NY,10003.0,,-0.5,,,,,,Transaction fee,,,,,,,,,,,GN,,,,2.0,,,,,N,,,,,,,
Montanans Decide,expenditure,10/03/2025 to 12/31/2025,C6,2025-12-19 00:00:00,Zupanic Law PLLC,,,,PO Box 1982,Helena,MT,59624.0,,-3000.0,,,,,,Legal Services - Compliance (December 2025),,,,,,,,,,,GN,,,,2.0,,,,,N,,,,,,,
Montanans Decide,expenditure,10/03/2025 to 12/31/2025,C6,2025-11-19 00:00:00,Caplin & Drysdale,,,,1200 New Hampshire Avenue NW 8th Floor,Washington,DC,20036.0,,-592.0,,,,,,Legal services (November 2025),,,,,,,,,,,GN,,,,2.0,,,,,N,,,,,,,
Montanans Decide,contribution,03/26/2026 to 04/25/2026,C6,2026-03-26 00:00:00,,Jon,,Heberling,42 Crane Marsh Way,Whitefish,MT,59937,,500.0,,Retired,Retired,8,CA,,500.0,,,,,N,,,,,,,,Other political committee contributions,,,,,,,,,,,,,
Montanans Decide,contribution,01/01/2026 to 03/25/2026,C6,2026-01-02 00:00:00,,Leonard,,Duberstein,925 Poly Dr,Billings,MT,59102,,200.0,,Retired,Retired,8,CA,,200.0,,,,,N,,,,,,,,Other political committee contributions,,,,,,,,,,,,,
Montanans Decide,contribution,01/01/2026 to 03/25/2026,C6,2026-01-24 00:00:00,,William ,,Reiter,606 E Park Ave,Anaconda,MT,59711,,50.0,,Physician,"Reiter Foundation, Odyssey Program",8,CA,,50.0,,,,,N,,,,,,,,Other political committee contributions,,,,,,,,,,,,,
Montanans Decide,contribution,01/01/2026 to 03/25/2026,C6,2026-01-23 00:00:00,,Judith,,Bendich,1754 NE 62nd St,Seattle,WA,98115,,250.0,,Retired,Retired,8,CA,,250.0,,,,,N,,,,,,,,Other political committee contributions,,,,,,,,,,,,,
Montanans Decide,contribution,01/01/2026 to 03/25/2026,C6,2026-03-25 00:00:00,,Martin ,,Finnegan,5764 Derby Dr,Helena,MT,Helena,,50.0,,Retired,Retired,8,CA,,145.87,,,,,N,,,,,,,,Other political committee contributions,,,,,,,,,,,,,
Montanans Decide,contribution,01/01/2026 to 03/25/2026,C6,2026-03-25 00:00:00,,Ellen,,Lappin,1580 Willow Rd,Deer Lodge,MT,59722,,50.0,,Retired,Retired,8,CA,,50.0,,,,,N,,,,,,,,Other political committee contributions,,,,,,,,,,,,,
Montanans Decide,contribution,01/01/2026 to 03/25/2026,C6,2026-03-25 00:00:00,,Mark,,Shenker,6926 Alisha Dr,Missoula,MT,59803,,25.0,,Retired,Retired,8,CA,,50.0,,,,,N,,,,,,,,Other political committee contributions,,,,,,,,,,,,,
Montanans Decide,contribution,01/01/2026 to 03/25/2026,C6,2026-03-25 00:00:00,,Margaret,,Stadler,504 4th Ave E,Kalispell,MT,59901,,50.0,,Retired Teacher,Retired,8,CA,,50.0,,,,,N,,,,,,,,Other political committee contributions,,,,,,,,,,,,,
Montanans Decide,contribution,01/01/2026 to 03/25/2026,C6,2026-01-24 00:00:00,,William,,Sussman,240 W 75th St Apt 8A,New York,NY,10023,,100.0,,Retired,Retired,8,CA,,100.0,,,,,N,,,,,,,,Other political committee contributions,,,,,,,,,,,,,
Montanans Decide,contribution,01/01/2026 to 03/25/2026,C6,2026-02-11 00:00:00,,Larry,M,Johnson,PO Box 13,Kremlin,MT,59532,,100.0,,Farmer,Self   ,8,CA,,100.0,,,,,N,,,,,,,,Other political committee contributions,,,,,,,,,,,,,
Montanans Decide,contribution,01/01/2026 to 03/25/2026,C6,2026-02-02 00:00:00,,Mitchell,,Hobish,,,,,,100.0,,Retired,Retired,8,CA,,100.0,,,,,N,,,,,,,,Other political committee contributions,,,,,,,,,,,,,
Montanans Decide,contribution,01/01/2026 to 03/25/2026,C6,2026-01-30 00:00:00,,Mark,,Shenker,6926 Alisha Dr,Missoula,MT,59803,,25.0,,Retired,Retired,8,CA,,50.0,,,,,N,,,,,,,,Other political committee contributions,,,,,,,,,,,,,
Montanans Decide,contribution,01/01/2026 to 03/25/2026,C6,2026-03-25 00:00:00,,Donald,,McCammon,2616 Bonnie Ct,Missoula,MT,59803,,50.0,,Retired professional engineer,Retired,8,CA,,50.0,,,,,N,,,,,,,,Other political committee contributions,,,,,,,,,,,,,
Montanans Decide,contribution,01/01/2026 to 03/25/2026,C6,2026-03-25 00:00:00,,Roger,,Kirk,PO Box 1136,Bozeman,MT,59771,,50.0,,Engineer,Hydrodynamics   ,8,CA,,50.0,,,,,N,,,,,,,,Other political committee contributions,,,,,,,,,,,,,
Montanans Decide,contribution,10/03/2025 to 12/31/2025,C6,2025-12-07 00:00:00,,Martin ,,Finnegan,5764 Derby Dr,Helena,MT,Helena,,95.87,,Consultant,self,8,CA,,95.87,,,,,N,,,,,,,,Other political committee contributions,,,,,,,,,,,,,
Montanans Decide,contribution,10/03/2025 to 12/31/2025,C6,2025-12-06 00:00:00,,Ed ,,Jenkins,Box 566,Pony,MT,59747,,100.0,,Retired,Retired,8,CA,,100.0,,,,,N,,,,,,,,Other political committee contributions,,,,,,,,,,,,,
Montanans Decide,contribution,10/03/2025 to 12/31/2025,C6,2025-12-06 00:00:00,,Judi ,,Hewitt,1350 Helena Flats Rd,Kalispell,MT,59901,,50.0,,Retired,Retired,8,CA,,50.0,,,,,N,,,,,,,,Other political committee contributions,,,,,,,,,,,,,
Montanans Decide,contribution,10/03/2025 to 12/31/2025,C6,2025-12-06 00:00:00,,Jon ,,Swenson,Cicignongata 8,Fredrikstad,MT,1606,,50.0,,Professor Emeritus,Norwegian University of Life Sciences,8,CA,,50.0,,,,,N,,,,,,,,Other political committee contributions,,,,,,,,,,,,,
Montanans Decide,contribution,10/03/2025 to 12/31/2025,C6,2025-12-05 00:00:00,,Ed ,,Selby,2222 Remington Sq,Billings,MT,59102,,100.0,,Retired,Retired,8,CA,,100.0,,,,,N,,,,,,,,Other political committee contributions,,,,,,,,,,,,,
Montanans Decide,contribution,10/03/2025 to 12/31/2025,C6,2025-12-05 00:00:00,,Louise,,Davis,9443 S Cottonwood Rd,Bozeman,MT,59718,,250.0,,Retired,Retired,8,CA,,250.0,,,,,N,,,,,,,,Other political committee contributions,,,,,,,,,,,,,
Montanans Decide,contribution,10/03/2025 to 12/31/2025,C6,2025-12-10 00:00:00,,Mary ,,Rutherford,1415 Winne Ave,Helena,MT,59601,,100.0,,President & CEO,MT Community Foundation,8,CA,,100.0,,,,,N,,,,,,,,Other political committee contributions,,,,,,,,,,,,,
Montanans Decide,contribution,10/03/2025 to 12/31/2025,C6,2025-12-10 00:00:00,,Dani ,,Hess,1711 Leslie Ave,Helena,MT,59601,,50.0,,Associate,Central House Strategies,8,CA,,50.0,,,,,N,,,,,,,,Other political committee contributions,,,,,,,,,,,,,
Montanans Decide,contribution,10/03/2025 to 12/31/2025,C6,2025-12-09 00:00:00,,Jessica,,Stewart-Kuntz,941 Hollins Ave,Helena,MT,59601,,50.0,,Executive VP,MT Community Foundation,8,CA,,50.0,,,,,N,,,,,,,,Other political committee contributions,,,,,,,,,,,,,
Montanans Decide,contribution,10/03/2025 to 12/31/2025,C6,2025-12-08 00:00:00,,Eleanor ,,Smith,315 Flowerree Street,Helena,MT,59601,,50.0,,Associate,Central House Strategies,8,CA,,50.0,,,,,N,,,,,,,,Other political committee contributions,,,,,,,,,,,,,
Montanans Decide,contribution,10/03/2025 to 12/31/2025,C6,2025-12-08 00:00:00,,Keith ,,Brighton,PO Box 1575,Red Lodge,MT,59068,,100.0,,Retired,Retired,8,CA,,100.0,,,,,N,,,,,,,,Other political committee contributions,,,,,,,,,,,,,
Montanans Decide,contribution,10/03/2025 to 12/31/2025,C6,2025-12-19 00:00:00,,Lauren ,,Caldwell,1003 Highland St,Helena,MT,59601,,100.0,,President,Fireweed Campaigns inc.,8,CA,,100.0,,,,,N,,,,,,,,Other political committee contributions,,,,,,,,,,,,,
Montanans Decide,contribution,10/03/2025 to 12/31/2025,C6,2025-12-18 00:00:00,,Deborah ,,Dick,622 K St,Salt Lake City,UT,84103,,50.0,,Retired,Retired,8,CA,,50.0,,,,,N,,,,,,,,Other political committee contributions,,,,,,,,,,,,,
Montanans Decide,contribution,10/03/2025 to 12/31/2025,C6,2025-12-19 00:00:00,,Tully ,,Olson,914 North Benton Ave,Helena,MT,59601,,100.0,,Campaigns Specialist,Fireweed Campaigns,8,CA,,100.0,,,,,N,,,,,,,,Other political committee contributions,,,,,,,,,,,,,
Montanans Decide,contribution,10/03/2025 to 12/31/2025,C6,2025-12-05 00:00:00,,John ,,Kirby,1533 Phillips,Missoula,MT,59802,,50.0,,Information requested,information requested,8,CA,,50.0,,,,,N,,,,,,,,Other political committee contributions,,,,,,,,,,,,,
Montanans Decide,contribution,10/03/2025 to 12/31/2025,C6,2025-12-05 00:00:00,,Margaret ,,Perryman,1456 Post Drive,Bozeman,MT,59715,,100.0,,Retired,Retired,8,CA,,100.0,,,,,N,,,,,,,,Other political committee contributions,,,,,,,,,,,,,
